timestamp,pub_timestamp,timestamp_sample,ref_timestamp,ref_lat,ref_lon,x,y,z,delta_xy[0],delta_xy[1],delta_z,vx,vy,vz,z_deriv,delta_vxy[0],delta_vxy[1],delta_vz,ax,ay,az,heading,heading_var,unaided_heading,delta_heading,tilt_var,ref_alt,dist_bottom,dist_bottom_var,delta_dist_bottom,eph,epv,evh,evv,vxy_max,vz_max,hagl_min,hagl_max_z,hagl_max_xy,publisher_id,xy_valid,z_valid,v_xy_valid,v_z_valid,xy_reset_counter,z_reset_counter,vxy_reset_counter,vz_reset_counter,heading_reset_counter,heading_good_for_control,xy_global,z_global,dist_bottom_valid,dist_bottom_reset_counter,dist_bottom_sensor_bitfield,dead_reckoning
1771685122636000,1771685122636000,1771685122636000,1771684928340000,47.3977419,8.5455939,0.0016526993,-0.069134235,0.025970459,0.004007112,-0.0025302004,-487.9847,-0.021982932,-0.009628873,-0.033354413,-0.07690199,-0.00090424286,0.00046052953,-0.0002578646,-0.0051444303,0.03100126,-0.002382323,0.00716359,0.00037744196,-0.005502019,-0.004130732,2.0508336e-05,487.9847,0.1000061,0.010000001,-487.9847,0.12109913,0.11347154,0.08087652,0.049457017,inf,inf,inf,inf,inf,160,1,1,1,1,3,3,2,1,3,1,1,1,0,3,0,0
1771685122644000,1771685122644000,1771685122644000,1771684928340000,47.3977419,8.5455939,0.0016789838,-0.06921845,0.025665283,0.004007112,-0.0025302004,-487.9847,-0.021501439,-0.009685354,-0.03320916,-0.076495565,-0.00090424286,0.00046052953,-0.0002578646,0.040906455,-0.009946707,0.01777522,0.007208247,0.00037755282,-0.0054528625,-0.004130732,2.0552685e-05,487.9847,0.1000061,0.010000001,-487.9847,0.12150946,0.11372363,0.081175745,0.049539793,inf,inf,inf,inf,inf,160,1,1,1,1,3,3,2,1,3,1,1,1,0,3,0,0
1771685122652000,1771685122652000,1771685122652000,1771684928340000,47.3977419,8.5455939,0.0017056176,-0.06930382,0.025390625,0.004007112,-0.0025302004,-487.9847,-0.020712065,-0.009990861,-0.033093065,-0.076114915,-0.00090424286,0.00046052953,-0.0002578646,0.07993723,-0.04099614,0.01402758,0.007181836,0.00037766382,-0.0054749222,-0.004130732,2.0597075e-05,487.9847,0.1000061,0.010000001,-487.9847,0.121922545,0.11397656,0.08147651,0.04962244,inf,inf,inf,inf,inf,160,1,1,1,1,3,3,2,1,3,1,1,1,0,3,0,0
1771685122660000,1771685122660000,1771685122660000,1771684928340000,47.3977419,8.5455939,0.0017564785,-0.06938757,0.02508545,0.004007112,-0.0025302004,-487.9847,-0.020423891,-0.010044208,-0.033117726,-0.075907335,-0.00090424286,0.00046052953,-0.0002578646,0.014856066,-0.010250403,-0.0031157394,0.0071778637,0.0003777559,-0.0054747034,-0.004130732,2.0362815e-05,487.9847,0.1000061,0.010000001,-487.9847,0.11968991,0.11265585,0.07983984,0.049177855,inf,inf,inf,inf,inf,160,1,1,1,1,3,3,2,1,3,1,1,1,0,3,0,0
1771685122668000,1771685122668000,1771685122668000,1771684928340000,47.3977419,8.5455939,0.0018039066,-0.06947064,0.024810791,0.004007112,-0.0025302004,-487.9847,-0.020268803,-0.009895106,-0.033164702,-0.075717665,-0.00090424286,0.00046052953,-0.0002578646,-0.0011768151,0.015152364,-0.0060177404,0.007145472,0.00037786688,-0.005503131,-0.004130732,2.0407038e-05,487.9847,0.1000061,0.010000001,-487.9847,0.12009071,0.11290515,0.08013982,0.049261056,inf,inf,inf,inf,inf,160,1,1,1,1,3,3,2,1,3,1,1,1,0,3,0,0
1771685122676000,1771685122676000,1771685122676000,1771684928340000,47.3977419,8.5455939,0.0018452938,-0.069552444,0.024505615,0.004007112,-0.0025302004,-487.9847,-0.020509925,-0.009951592,-0.033119343,-0.075431414,-0.00090424286,0.00046052953,-0.0002578646,-0.050111093,-0.010456849,0.0054156403,0.0071301768,0.00037797788,-0.0055146175,-0.004130732,2.0451302e-05,487.9847,0.1000061,0.010000001,-487.9847,0.12049425,0.1131553,0.08043946,0.049344134,inf,inf,inf,inf,inf,160,1,1,1,1,3,3,2,1,3,1,1,1,0,3,0,0
1771685122684000,1771685122684000,1771685122684000,1771684928340000,47.3977419,8.5455939,0.001881462,-0.06963516,0.024230957,0.004007112,-0.0025302004,-487.9847,-0.020208031,-0.010053412,-0.032748032,-0.07481219,-0.00090424286,0.00046052953,-0.0002578646,0.018336648,-0.016041081,0.045944,0.007213009,0.00037808905,-0.0054281354,-0.004130732,2.0495609e-05,487.9847,0.1000061,0.010000001,-487.9847,0.120900534,0.11334729,0.080738954,0.049416687,inf,inf,inf,inf,inf,160,1,1,1,1,3,3,2,1,3,1,1,1,0,3,0,0
1771685122692000,1771685122692000,1771685122692000,1771684928340000,47.3977419,8.5455939,0.0019156176,-0.06971711,0.023956299,0.004007112,-0.0025302004,-487.9847,-0.019961705,-0.010123696,-0.03263911,-0.0744517,-0.00090424286,0.00046052953,-0.0002578646,0.011908077,-0.012166015,0.013047363,0.007284435,0.00037803772,-0.005353213,-0.004130732,2.0537827e-05,487.9847,0.1000061,0.010000001,-487.9847,0.12130917,0.11359897,0.08103678,0.049499527,inf,inf,inf,inf,inf,160,1,1,1,1,3,3,2,1,3,1,1,1,0,3,0,0
1771685122700000,1771685122700000,1771685122700000,1771684928340000,47.3977419,8.5455939,0.0019465602,-0.069799826,0.02368164,0.004007112,-0.0025302004,-487.9847,-0.019917183,-0.0102612395,-0.032983996,-0.07454158,-0.00090424286,0.00046052953,-0.0002578646,-0.0130140595,-0.02042913,-0.043773554,0.007304037,0.00037722374,-0.005331631,-0.004130732,2.0571273e-05,487.9847,0.1000061,0.010000001,-487.9847,0.12171852,0.113851495,0.08132777,0.049582236,inf,inf,inf,inf,inf,160,1,1,1,1,3,3,2,1,3,1,1,1,0,3,0,0
1771685122708000,1771685122708000,1771685122708000,1771684928340000,47.3977419,8.5455939,0.0019732786,-0.06988252,0.023406982,0.004007112,-0.0025302004,-487.9847,-0.019912472,-0.010110499,-0.033016212,-0.074315496,-0.00090424286,0.00046052953,-0.0002578646,-0.017460609,0.01569576,-0.0047818753,0.0072890464,0.00037733448,-0.0053453436,-0.004130732,2.0615667e-05,487.9847,0.1000061,0.010000001,-487.9847,0.12213302,0.11410485,0.081629105,0.04966482,inf,inf,inf,inf,inf,160,1,1,1,1,3,3,2,1,3,1,1,1,0,3,0,0
1771685122716000,1771685122716000,1771685122716000,1771684928340000,47.3977419,8.5455939,0.0020194335,-0.069945924,0.023101807,0.004007112,-0.0025302004,-487.9847,-0.020120054,-0.009993658,-0.033012748,-0.07408513,-0.00090424286,0.00046052953,-0.0002578646,-0.046495467,0.009861974,6.379559e-05,0.007322047,0.00037742621,-0.005311217,-0.004130732,2.0379422e-05,487.9847,0.1000061,0.010000001,-487.9847,0.11988551,0.112779014,0.079980165,0.049218345,inf,inf,inf,inf,inf,160,1,1,1,1,3,3,2,1,3,1,1,1,0,3,0,0
1771685122724000,1771685122724000,1771685122724000,1771684928340000,47.3977419,8.5455939,0.0020610865,-0.07000981,0.022827148,0.004007112,-0.0025302004,-487.9847,-0.019751895,-0.010178799,-0.03287635,-0.073717654,-0.00090424286,0.00046052953,-0.0002578646,0.026054945,-0.027752716,0.016580334,0.0073276623,0.00037753704,-0.005304754,-0.004130732,2.0423653e-05,487.9847,0.1000061,0.010000001,-487.9847,0.12028761,0.11302873,0.08027909,0.04930149,inf,inf,inf,inf,inf,160,1,1,1,1,3,3,2,1,3,1,1,1,0,3,0,0
1771685122732000,1771685122732000,1771685122732000,1771684928340000,47.3977419,8.5455939,0.002099997,-0.07007513,0.02255249,0.004007112,-0.0025302004,-487.9847,-0.019613344,-0.010245551,-0.032819845,-0.07342611,-0.00090424286,0.00046052953,-0.0002578646,-0.0020832866,-0.012832657,0.006496906,0.00728145,0.00037764784,-0.005350273,-0.004130732,2.0467924e-05,487.9847,0.1000061,0.010000001,-487.9847,0.12069245,0.113279276,0.080578655,0.049384505,inf,inf,inf,inf,inf,160,1,1,1,1,3,3,2,1,3,1,1,1,0,3,0,0
1771685122740000,1771685122740000,1771685122740000,1771684928340000,47.3977419,8.5455939,0.0021333455,-0.07014102,0.022277832,0.004007112,-0.0025302004,-487.9847,-0.019839402,-0.010348928,-0.03295247,-0.07331701,-0.00090424286,0.00046052953,-0.0002578646,-0.047110334,-0.01729016,-0.01735566,0.0073056757,0.00037775878,-0.00532551,-0.004130732,2.0512234e-05,487.9847,0.1000061,0.010000001,-487.9847,0.12110004,0.113471486,0.0808774,0.049456954,inf,inf,inf,inf,inf,160,1,1,1,1,3,3,2,1,3,1,1,1,0,3,0,0
1771685122748000,1771685122748000,1771685122748000,1771684928340000,47.3977419,8.5455939,0.002161322,-0.070206955,0.022003174,0.004007112,-0.0025302004,-487.9847,-0.019628813,-0.01024088,-0.03257734,-0.07269686,-0.00090424286,0.00046052953,-0.0002578646,0.008011323,0.00925628,0.046026424,0.007295929,0.00037786973,-0.0053348746,-0.004130732,2.0556578e-05,487.9847,0.1000061,0.010000001,-487.9847,0.12151039,0.11372358,0.081177704,0.04953973,inf,inf,inf,inf,inf,160,1,1,1,1,3,3,2,1,3,1,1,1,0,3,0,0
1771685122756000,1771685122756000,1771685122756000,1771684928340000,47.3977419,8.5455939,0.002186985,-0.07027326,0.021728516,0.004007112,-0.0025302004,-487.9847,-0.01939197,-0.010403066,-0.032508604,-0.07237994,-0.00090424286,0.00046052953,-0.0002578646,0.011815511,-0.02441132,0.0076424326,0.007262765,0.00037798064,-0.0053678076,-0.004130732,2.060096e-05,487.9847,0.1000061,0.010000001,-487.9847,0.12192349,0.11397651,0.081478976,0.049622376,inf,inf,inf,inf,inf,160,1,1,1,1,3,3,2,1,3,1,1,1,0,3,0,0
1771685122764000,1771685122764000,1771685122764000,1771684928340000,47.3977419,8.5455939,0.00224382,-0.07033035,0.021453857,0.004007112,-0.0025302004,-487.9847,-0.019508729,-0.010513455,-0.032383688,-0.07203436,-0.00090424286,0.00046052953,-0.0002578646,-0.03545699,-0.01919852,0.014941673,0.007222542,0.00037714807,-0.005407945,-0.004130732,2.035596e-05,487.9847,0.1000061,0.010000001,-487.9847,0.11968858,0.1126558,0.079832815,0.049177796,inf,inf,inf,inf,inf,160,1,1,1,1,3,3,2,1,3,1,1,1,0,3,0,0
1771685122772000,1771685122772000,1771685122772000,1771684928340000,47.3977419,8.5455939,0.0022938247,-0.07038659,0.0211792,0.004007112,-0.0025302004,-487.9847,-0.019698631,-0.010178463,-0.0324725,-0.07189846,-0.00090424286,0.00046052953,-0.0002578646,-0.04400923,0.036615293,-0.011863652,0.007244319,0.00037725872,-0.0053862217,-0.004130732,2.0400172e-05,487.9847,0.1000061,0.010000001,-487.9847,0.120089345,0.11290511,0.08013341,0.049261,inf,inf,inf,inf,inf,160,1,1,1,1,3,3,2,1,3,1,1,1,0,3,0,0
1771685122780000,1771685122780000,1771685122780000,1771684928340000,47.3977419,8.5455939,0.00233792,-0.07044069,0.020904541,0.004007112,-0.0025302004,-487.9847,-0.019668955,-0.009866597,-0.032656945,-0.07185427,-0.00090424286,0.00046052953,-0.0002578646,-0.015984664,0.033866953,-0.023904255,0.0072885803,0.0003773695,-0.00534215,-0.004130732,2.0444422e-05,487.9847,0.1000061,0.010000001,-487.9847,0.120492846,0.11315525,0.08043333,0.049344074,inf,inf,inf,inf,inf,160,1,1,1,1,3,3,2,1,3,1,1,1,0,3,0,0
1771685122788000,1771685122788000,1771685122788000,1771684928340000,47.3977419,8.5455939,0.0023776442,-0.0704928,0.020629883,0.004007112,-0.0025302004,-487.9847,-0.019530717,-0.00971684,-0.032897655,-0.07185861,-0.00090424286,0.00046052953,-0.0002578646,-0.0018546706,0.013743177,-0.031155998,0.0073307357,0.00037748023,-0.005300317,-0.004130732,2.048871e-05,487.9847,0.1000061,0.010000001,-487.9847,0.120899096,0.11334725,0.08073322,0.049416628,inf,inf,inf,inf,inf,160,1,1,1,1,3,3,2,1,3,1,1,1,0,3,0,0
1771685122796000,1771685122796000,1771685122796000,1771684928340000,47.3977419,8.5455939,0.0024136212,-0.070547335,0.020355225,0.004007112,-0.0025302004,-487.9847,-0.019332884,-0.010318228,-0.032995567,-0.07171677,-0.00090424286,0.00046052953,-0.0002578646,0.006142175,-0.08002252,-0.0133831045,0.0074369153,0.00037759106,-0.0051945965,-0.004130732,2.0533036e-05,487.9847,0.1000061,0.010000001,-487.9847,0.1213081,0.11359893,0.08103315,0.049499467,inf,inf,inf,inf,inf,160,1,1,1,1,3,3,2,1,3,1,1,1,0,3,0,0
1771685122804000,1771685122804000,1771685122804000,1771684928340000,47.3977419,8.5455939,0.002444909,-0.07060714,0.020111084,0.004007112,-0.0025302004,-487.9847,-0.019566251,-0.010868307,-0.03299121,-0.07146951,-0.00090424286,0.00046052953,-0.0002578646,-0.047230728,-0.073477186,-0.0006742775,0.0074080615,0.000377702,-0.005224038,-0.004130732,2.0577401e-05,487.9847,0.1000061,0.010000001,-487.9847,0.121719874,0.11385145,0.08133358,0.04958218,inf,inf,inf,inf,inf,160,1,1,1,1,3,3,2,1,3,1,1,1,0,3,0,0
1771685122812000,1771685122812000,1771685122812000,1771684928340000,47.3977419,8.5455939,0.002470003,-0.07067,0.019836426,0.004007112,-0.0025302004,-487.9847,-0.019465221,-0.011024291,-0.033216257,-0.07144868,-0.00090424286,0.00046052953,-0.0002578646,-0.004913936,-0.0240837,-0.02942141,0.0073654316,0.0003778128,-0.00526738,-0.004130732,2.0621796e-05,487.9847,0.1000061,0.010000001,-487.9847,0.1221344,0.11410481,0.08163441,0.049664766,inf,inf,inf,inf,inf,160,1,1,1,1,3,3,2,1,3,1,1,1,0,3,0,0
1771685122820000,1771685122820000,1771685122820000,1771684928340000,47.3977419,8.5455939,0.0025252074,-0.07072959,0.019561768,0.004007112,-0.0025302004,-487.9847,-0.01917943,-0.010717023,-0.032945417,-0.070960686,-0.00090424286,0.00046052953,-0.0002578646,0.015505487,0.03305896,0.03287615,0.007346429,0.0003779042,-0.005287219,-0.004130732,2.0385392e-05,487.9847,0.1000061,0.010000001,-487.9847,0.119886726,0.11277897,0.07998529,0.049218293,inf,inf,inf,inf,inf,160,1,1,1,1,3,3,2,1,3,1,1,1,0,3,0,0
1771685122828000,1771685122828000,1771685122828000,1771684928340000,47.3977419,8.5455939,0.0025768774,-0.07078834,0.01928711,0.004007112,-0.0025302004,-487.9847,-0.01897717,-0.010838548,-0.03279427,-0.0705886,-0.00090424286,0.00046052953,-0.0002578646,0.00563832,-0.02039663,0.017836688,0.0073583457,0.00037801513,-0.0052763247,-0.004130732,2.042963e-05,487.9847,0.1000061,0.010000001,-487.9847,0.12028886,0.11302868,0.08028449,0.04930143,inf,inf,inf,inf,inf,160,1,1,1,1,3,3,2,1,3,1,1,1,0,3,0,0
1771685122836000,1771685122836000,1771685122836000,1771684928340000,47.3977419,8.5455939,0.0026228994,-0.070850804,0.019012451,0.004007112,-0.0025302004,-487.9847,-0.018763343,-0.010880532,-0.032987155,-0.07055702,-0.00090424286,0.00046052953,-0.0002578646,0.008087254,-0.009768233,-0.025243497,0.007345836,0.00037720098,-0.0052899704,-0.004130732,2.0463125e-05,487.9847,0.1000061,0.010000001,-487.9847,0.12069143,0.11327924,0.080574095,0.049384445,inf,inf,inf,inf,inf,160,1,1,1,1,3,3,2,1,3,1,1,1,0,3,0,0
1771685122844000,1771685122844000,1771685122844000,1771684928340000,47.3977419,8.5455939,0.0026648694,-0.07091379,0.01876831,0.004007112,-0.0025302004,-487.9847,-0.01867671,-0.0107589,-0.03333137,-0.07067048,-0.00090424286,0.00046052953,-0.0002578646,-0.0072817206,0.010803992,-0.044320706,0.007361063,0.0003773117,-0.0052801864,-0.004130732,2.0507428e-05,487.9847,0.1000061,0.010000001,-487.9847,0.121098995,0.11347144,0.08087384,0.04945689,inf,inf,inf,inf,inf,160,1,1,1,1,3,3,2,1,3,1,1,1,0,3,0,0
1771685122852000,1771685122852000,1771685122852000,1771684928340000,47.3977419,8.5455939,0.0027031852,-0.07097502,0.018493652,0.004007112,-0.0025302004,-487.9847,-0.018423326,-0.010592972,-0.03289482,-0.070000134,-0.00090424286,0.00046052953,-0.0002578646,0.014081785,0.016458673,0.053207386,0.0073912544,0.0003774224,-0.005255544,-0.004130732,2.055177e-05,487.9847,0.1000061,0.010000001,-487.9847,0.12150931,0.11372354,0.08117496,0.049539667,inf,inf,inf,inf,inf,160,1,1,1,1,3,3,2,1,3,1,1,1,0,3,0,0
1771685122860000,1771685122860000,1771685122860000,1771684928340000,47.3977419,8.5455939,0.0027381969,-0.071037374,0.018249512,0.004007112,-0.0025302004,-487.9847,-0.018246915,-0.010783015,-0.032850876,-0.069719486,-0.00090424286,0.00046052953,-0.0002578646,0.004972177,-0.027920526,0.004066154,0.0073907473,0.0003775334,-0.0052616633,-0.004130732,2.0596157e-05,487.9847,0.1000061,0.010000001,-487.9847,0.1219224,0.11397646,0.08147553,0.049622312,inf,inf,inf,inf,inf,160,1,1,1,1,3,3,2,1,3,1,1,1,0,3,0,0
1771685122868000,1771685122868000,1771685122868000,1771684928340000,47.3977419,8.5455939,0.0028031536,-0.07110367,0.017974854,0.004007112,-0.0025302004,-487.9847,-0.017993076,-0.010802745,-0.033047132,-0.069701806,-0.00090424286,0.00046052953,-0.0002578646,0.0119961,-0.0070736837,-0.025840009,0.007355112,0.0003776244,-0.0053029545,-0.004130732,2.036196e-05,487.9847,0.1000061,0.010000001,-487.9847,0.11968979,0.11265576,0.079838224,0.049177736,inf,inf,inf,inf,inf,160,1,1,1,1,3,3,2,1,3,1,1,1,0,3,0,0
1771685122876000,1771685122876000,1771685122876000,1771684928340000,47.3977419,8.5455939,0.002862519,-0.071171775,0.017700195,0.004007112,-0.0025302004,-487.9847,-0.01815794,-0.011055799,-0.032983705,-0.069420956,-0.00090424286,0.00046052953,-0.0002578646,-0.0397704,-0.03611208,0.006554182,0.00741748,0.00037773524,-0.0052463347,-0.004130732,2.040618e-05,487.9847,0.1000061,0.010000001,-487.9847,0.12009058,0.112905055,0.08013732,0.04926094,inf,inf,inf,inf,inf,160,1,1,1,1,3,3,2,1,3,1,1,1,0,3,0,0
1771685122884000,1771685122884000,1771685122884000,1771684928340000,47.3977419,8.5455939,0.0029168394,-0.07123979,0.017456055,0.004007112,-0.0025302004,-487.9847,-0.01792967,-0.010828869,-0.03290547,-0.06912202,-0.00090424286,0.00046052953,-0.0002578646,0.009920521,0.024010079,0.008340924,0.00750127,0.00037784615,-0.005168326,-0.004130732,2.0450436e-05,487.9847,0.1000061,0.010000001,-487.9847,0.12049411,0.1131552,0.080436796,0.049344014,inf,inf,inf,inf,inf,160,1,1,1,1,3,3,2,1,3,1,1,1,0,3,0,0
1771685122892000,1771685122892000,1771685122892000,1771684928340000,47.3977419,8.5455939,0.0029682845,-0.07130754,0.017181396,0.004007112,-0.0025302004,-487.9847,-0.01751046,-0.010969974,-0.03266432,-0.06865502,-0.00090424286,0.00046052953,-0.0002578646,0.03442364,-0.021891894,0.028559936,0.0074860114,0.00037779508,-0.0051893997,-0.004130732,2.0492618e-05,487.9847,0.1000061,0.010000001,-487.9847,0.1209,0.113347195,0.08073516,0.04941657,inf,inf,inf,inf,inf,160,1,1,1,1,3,3,2,1,3,1,1,1,0,3,0,0
1771685122900000,1771685122900000,1771685122900000,1771684928340000,47.3977419,8.5455939,0.0030167631,-0.07137696,0.016937256,0.004007112,-0.0025302004,-487.9847,-0.017446335,-0.011058558,-0.03232607,-0.068088084,-0.00090424286,0.00046052953,-0.0002578646,-0.009478992,-0.015154656,0.040640585,0.007500113,0.00037698264,-0.005180651,-0.004130732,2.0526088e-05,487.9847,0.1000061,0.010000001,-487.9847,0.12130664,0.113598876,0.08102499,0.049499407,inf,inf,inf,inf,inf,160,1,1,1,1,3,3,2,1,3,1,1,1,0,3,0,0
1771685122908000,1771685122908000,1771685122908000,1771684928340000,47.3977419,8.5455939,0.0030610068,-0.07144778,0.016693115,0.004007112,-0.0025302004,-487.9847,-0.017365051,-0.011367658,-0.0324906,-0.068021305,-0.00090424286,0.00046052953,-0.0002578646,-0.0068215835,-0.042609215,-0.022263264,0.0074081547,0.0003770932,-0.0052784053,-0.004130732,2.0570438e-05,487.9847,0.1000061,0.010000001,-487.9847,0.12171836,0.1138514,0.08132523,0.049582116,inf,inf,inf,inf,inf,160,1,1,1,1,3,3,2,1,3,1,1,1,0,3,0,0
1771685122916000,1771685122916000,1771685122916000,1771684928340000,47.3977419,8.5455939,0.0030999966,-0.07152091,0.016479492,0.004007112,-0.0025302004,-487.9847,-0.017495034,-0.011512894,-0.032424144,-0.067721084,-0.00090424286,0.00046052953,-0.0002578646,-0.032740694,-0.022024738,0.006556976,0.0073791337,0.0003772038,-0.0053132414,-0.004130732,2.0614825e-05,487.9847,0.1000061,0.010000001,-487.9847,0.12213286,0.11410475,0.08162544,0.0496647,inf,inf,inf,inf,inf,160,1,1,1,1,3,3,2,1,3,1,1,1,0,3,0,0
1771685122924000,1771685122924000,1771685122924000,1771684928340000,47.3977419,8.5455939,0.0031447327,-0.07159004,0.016204834,0.004007112,-0.0025302004,-487.9847,-0.01770058,-0.011473402,-0.032794565,-0.06788299,-0.00090424286,0.00046052953,-0.0002578646,-0.043773677,0.00016757894,-0.047847625,0.0073607056,0.00037729446,-0.0053374977,-0.004130732,2.0378686e-05,487.9847,0.1000061,0.010000001,-487.9847,0.11988539,0.11277892,0.07997676,0.04921823,inf,inf,inf,inf,inf,160,1,1,1,1,3,3,2,1,3,1,1,1,0,3,0,0
1771685122932000,1771685122932000,1771685122932000,1771684928340000,47.3977419,8.5455939,0.003183913,-0.07165961,0.015930176,0.004007112,-0.0025302004,-487.9847,-0.01764813,-0.01157726,-0.032720003,-0.06759674,-0.00090424286,0.00046052953,-0.0002578646,-0.011007594,-0.017621975,0.0077178697,0.0074723684,0.00037740514,-0.005231754,-0.004130732,2.0422913e-05,487.9847,0.1000061,0.010000001,-487.9847,0.12028748,0.11302862,0.08027662,0.049301367,inf,inf,inf,inf,inf,160,1,1,1,1,3,3,2,1,3,1,1,1,0,3,0,0
1771685122940000,1771685122940000,1771685122940000,1771684928340000,47.3977419,8.5455939,0.0032183148,-0.0717303,0.015686035,0.004007112,-0.0025302004,-487.9847,-0.017802194,-0.011675992,-0.032735545,-0.06739753,-0.00090424286,0.00046052953,-0.0002578646,-0.03631427,-0.016852574,-0.0036000272,0.0074754013,0.0003775158,-0.0052346475,-0.004130732,2.0467176e-05,487.9847,0.1000061,0.010000001,-487.9847,0.12069231,0.11327917,0.08057698,0.049384378,inf,inf,inf,inf,inf,160,1,1,1,1,3,3,2,1,3,1,1,1,0,3,0,0
1771685122948000,1771685122948000,1771685122948000,1771684928340000,47.3977419,8.5455939,0.0032462133,-0.07180307,0.0154418945,0.004007112,-0.0025302004,-487.9847,-0.018043963,-0.012010246,-0.032572757,-0.067014016,-0.00090424286,0.00046052953,-0.0002578646,-0.04678255,-0.046170786,0.018520279,0.0074210144,0.00037762662,-0.005294964,-0.004130732,2.0511481e-05,487.9847,0.1000061,0.010000001,-487.9847,0.121099904,0.11347138,0.08087728,0.049456827,inf,inf,inf,inf,inf,160,1,1,1,1,3,3,2,1,3,1,1,1,0,3,0,0
1771685122956000,1771685122956000,1771685122956000,1771684928340000,47.3977419,8.5455939,0.0032681446,-0.07187733,0.015197754,0.004007112,-0.0025302004,-487.9847,-0.018078808,-0.012000488,-0.032586638,-0.0668045,-0.00090424286,0.00046052953,-0.0002578646,-0.020440346,-0.0030487615,-0.003611203,0.0074762437,0.00037773736,-0.0052456637,-0.004130732,2.055582e-05,487.9847,0.1000061,0.010000001,-487.9847,0.121510245,0.11372347,0.08117742,0.049539603,inf,inf,inf,inf,inf,160,1,1,1,1,3,3,2,1,3,1,1,1,0,3,0,0
1771685122964000,1771685122964000,1771685122964000,1771684928340000,47.3977419,8.5455939,0.0032868532,-0.07195195,0.014953613,0.004007112,-0.0025302004,-487.9847,-0.017811736,-0.012034475,-0.032672714,-0.066664614,-0.00090424286,0.00046052953,-0.0002578646,0.01776545,-0.008396581,-0.012681819,0.0074748723,0.00037784825,-0.005252963,-0.004130732,2.06002e-05,487.9847,0.1000061,0.010000001,-487.9847,0.12192335,0.113976404,0.08147859,0.04962225,inf,inf,inf,inf,inf,160,1,1,1,1,3,3,2,1,3,1,1,1,0,3,0,0
1771685122972000,1771685122972000,1771685122972000,1771684928340000,47.3977419,8.5455939,0.003326723,-0.07202946,0.014709473,0.004007112,-0.0025302004,-487.9847,-0.017981194,-0.0122855315,-0.032799408,-0.06659549,-0.00090424286,0.00046052953,-0.0002578646,-0.039495602,-0.03615626,-0.017396638,0.0075099007,0.00037701533,-0.005223852,-0.004130732,2.0355255e-05,487.9847,0.1000061,0.010000001,-487.9847,0.11968846,0.11265571,0.07983163,0.049177676,inf,inf,inf,inf,inf,160,1,1,1,1,3,3,2,1,3,1,1,1,0,3,0,0
1771685122980000,1771685122980000,1771685122980000,1771684928340000,47.3977419,8.5455939,0.0033600803,-0.07210819,0.014434814,0.004007112,-0.0025302004,-487.9847,-0.018190475,-0.012281603,-0.033044837,-0.06664172,-0.00090424286,0.00046052953,-0.0002578646,-0.04394582,-0.0041490938,-0.032293607,0.0075248154,0.00037712592,-0.0052149524,-0.004130732,2.0399464e-05,487.9847,0.1000061,0.010000001,-487.9847,0.12008922,0.112905,0.08013058,0.049260877,inf,inf,inf,inf,inf,160,1,1,1,1,3,3,2,1,3,1,1,1,0,3,0,0
1771685122988000,1771685122988000,1771685122988000,1771684928340000,47.3977419,8.5455939,0.0033871452,-0.072187215,0.014190674,0.004007112,-0.0025302004,-487.9847,-0.01833221,-0.012360316,-0.033563104,-0.06695757,-0.00090424286,0.00046052953,-0.0002578646,-0.034986205,-0.014353144,-0.06645079,0.007558609,0.0003772366,-0.005187158,-0.004130732,2.0443715e-05,487.9847,0.1000061,0.010000001,-487.9847,0.12049271,0.11315515,0.080430694,0.049343955,inf,inf,inf,inf,inf,160,1,1,1,1,3,3,2,1,3,1,1,1,0,3,0,0
1771685122996000,1771685122996000,1771685122996000,1771684928340000,47.3977419,8.5455939,0.0034090292,-0.072269,0.013916016,0.004007112,-0.0025302004,-487.9847,-0.018378068,-0.012903322,-0.03357874,-0.066765666,-0.00090424286,0.00046052953,-0.0002578646,-0.022497654,-0.072266184,-0.0037429852,0.0075337924,0.0003773472,-0.0052179573,-0.004130732,2.0487998e-05,487.9847,0.1000061,0.010000001,-487.9847,0.12089896,0.11334714,0.08073142,0.04941651,inf,inf,inf,inf,inf,160,1,1,1,1,3,3,2,1,3,1,1,1,0,3,0,0
1771685123004000,1771685123004000,1771685123004000,1771684928340000,47.3977419,8.5455939,0.003426522,-0.072354905,0.013671875,0.004007112,-0.0025302004,-487.9847,-0.018302875,-0.013305445,-0.033790316,-0.066766836,-0.00090424286,0.00046052953,-0.0002578646,-0.0068731154,-0.054535717,-0.028282868,0.0076091504,0.00037745773,-0.0051484494,-0.004130732,2.053231e-05,487.9847,0.1000061,0.010000001,-487.9847,0.12130796,0.11359882,0.0810305,0.049499344,inf,inf,inf,inf,inf,160,1,1,1,1,3,3,2,1,3,1,1,1,0,3,0,0
1771685123012000,1771685123012000,1771685123012000,1771684928340000,47.3977419,8.5455939,0.0034387612,-0.07244368,0.013427734,0.004007112,-0.0025302004,-487.9847,-0.018603798,-0.013596712,-0.033880882,-0.06664435,-0.00090424286,0.00046052953,-0.0002578646,-0.053413022,-0.04055963,-0.013201962,0.0076353485,0.00037756847,-0.0051279664,-0.004130732,2.0576668e-05,487.9847,0.1000061,0.010000001,-487.9847,0.12171972,0.11385134,0.08133086,0.049582053,inf,inf,inf,inf,inf,160,1,1,1,1,3,3,2,1,3,1,1,1,0,3,0,0
1771685123020000,1771685123020000,1771685123020000,1771684928340000,47.3977419,8.5455939,0.0034458623,-0.072534315,0.013183594,0.004007112,-0.0025302004,-487.9847,-0.018445617,-0.013706501,-0.034220677,-0.066768564,-0.00090424286,0.00046052953,-0.0002578646,0.0044378815,-0.017761141,-0.044399403,0.007625206,0.0003776792,-0.0051436885,-0.004130732,2.0621064e-05,487.9847,0.1000061,0.010000001,-487.9847,0.12213424,0.114104696,0.081632145,0.049664635,inf,inf,inf,inf,inf,160,1,1,1,1,3,3,2,1,3,1,1,1,0,3,0,0
1771685123028000,1771685123028000,1771685123028000,1771684928340000,47.3977419,8.5455939,0.0034812335,-0.07261269,0.012908936,0.004007112,-0.0025302004,-487.9847,-0.018445289,-0.013796699,-0.034304533,-0.06666798,-0.00090424286,0.00046052953,-0.0002578646,-0.017850725,-0.01673792,-0.012030358,0.00757759,0.00037777,-0.0051967446,-0.004130732,2.0384741e-05,487.9847,0.1000061,0.010000001,-487.9847,0.11988659,0.11277887,0.07998275,0.049218167,inf,inf,inf,inf,inf,160,1,1,1,1,3,3,2,1,3,1,1,1,0,3,0,0
1771685123036000,1771685123036000,1771685123036000,1771684928340000,47.3977419,8.5455939,0.003511387,-0.0726914,0.012634277,0.004007112,-0.0025302004,-487.9847,-0.01843842,-0.013616332,-0.034550242,-0.0667258,-0.00090424286,0.00046052953,-0.0002578646,-0.016417941,0.017258592,-0.032315027,0.007643001,0.00037695718,-0.005136753,-0.004130732,2.041825e-05,487.9847,0.1000061,0.010000001,-487.9847,0.12028647,0.11302858,0.08027292,0.049301304,inf,inf,inf,inf,inf,160,1,1,1,1,3,3,2,1,3,1,1,1,0,3,0,0
1771685123044000,1771685123044000,1771685123044000,1771684928340000,47.3977419,8.5455939,0.003537242,-0.072769545,0.012359619,0.004007112,-0.0025302004,-487.9847,-0.018297808,-0.013559336,-0.034379475,-0.06636391,-0.00090424286,0.00046052953,-0.0002578646,0.0008037659,0.0019828784,0.019693745,0.0077105076,0.00037706766,-0.00507461,-0.004130732,2.0462512e-05,487.9847,0.1000061,0.010000001,-487.9847,0.12069128,0.11327913,0.08057214,0.049384315,inf,inf,inf,inf,inf,160,1,1,1,1,3,3,2,1,3,1,1,1,0,3,0,0
1771685123052000,1771685123052000,1771685123052000,1771684928340000,47.3977419,8.5455939,0.003560248,-0.07284748,0.012084961,0.004007112,-0.0025302004,-487.9847,-0.017928947,-0.013486911,-0.034150403,-0.0659377,-0.00090424286,0.00046052953,-0.0002578646,0.029826576,0.0040548965,0.026822088,0.0077522867,0.0003771782,-0.0050380523,-0.004130732,2.050681e-05,487.9847,0.1000061,0.010000001,-487.9847,0.12109884,0.11347134,0.080871224,0.049456764,inf,inf,inf,inf,inf,160,1,1,1,1,3,3,2,1,3,1,1,1,0,3,0,0
1771685123060000,1771685123060000,1771685123060000,1771684928340000,47.3977419,8.5455939,0.003582086,-0.07292569,0.01184082,0.004007112,-0.0025302004,-487.9847,-0.017550116,-0.013430612,-0.034270592,-0.065858044,-0.00090424286,0.00046052953,-0.0002578646,0.03154924,0.002183307,-0.016879288,0.007854613,0.00037728876,-0.004940816,-0.004130732,2.0551148e-05,487.9847,0.1000061,0.010000001,-487.9847,0.12150916,0.11372343,0.08117191,0.049539536,inf,inf,inf,inf,inf,160,1,1,1,1,3,3,2,1,3,1,1,1,0,3,0,0
1771685123068000,1771685123068000,1771685123068000,1771684928340000,47.3977419,8.5455939,0.0036014738,-0.073004134,0.011566162,0.004007112,-0.0025302004,-487.9847,-0.017451253,-0.013506225,-0.034495503,-0.06588054,-0.00090424286,0.00046052953,-0.0002578646,-0.002985368,-0.014166536,-0.030011868,0.0078770155,0.0003773994,-0.004923365,-0.004130732,2.0595522e-05,487.9847,0.1000061,0.010000001,-487.9847,0.121922225,0.11397636,0.08147218,0.049622186,inf,inf,inf,inf,inf,160,1,1,1,1,3,3,2,1,3,1,1,1,0,3,0,0
1771685123076000,1771685123076000,1771685123076000,1771684928340000,47.3977419,8.5455939,0.0036474022,-0.07308503,0.011291504,0.004007112,-0.0025302004,-487.9847,-0.017447494,-0.013809593,-0.03456717,-0.06576882,-0.00090424286,0.00046052953,-0.0002578646,-0.017350232,-0.043344535,-0.010881106,0.007868274,0.00037748972,-0.004936914,-0.004130732,2.0361396e-05,487.9847,0.1000061,0.010000001,-487.9847,0.11968964,0.112655655,0.079836,0.04917761,inf,inf,inf,inf,inf,160,1,1,1,1,3,3,2,1,3,1,1,1,0,3,0,0
1771685123084000,1771685123084000,1771685123084000,1771684928340000,47.3977419,8.5455939,0.003688492,-0.0731671,0.011047363,0.004007112,-0.0025302004,-487.9847,-0.017494082,-0.013635444,-0.03453217,-0.06554731,-0.00090424286,0.00046052953,-0.0002578646,-0.0231265,0.016489552,0.0024121252,0.007837097,0.00037760052,-0.0049728295,-0.004130732,2.0405616e-05,487.9847,0.1000061,0.010000001,-487.9847,0.120090425,0.11290496,0.08013514,0.04926081,inf,inf,inf,inf,inf,160,1,1,1,1,3,3,2,1,3,1,1,1,0,3,0,0
1771685123092000,1771685123092000,1771685123092000,1771684928340000,47.3977419,8.5455939,0.003723744,-0.07324753,0.010772705,0.004007112,-0.0025302004,-487.9847,-0.01765443,-0.013577074,-0.03497567,-0.06580133,-0.00090424286,0.00046052953,-0.0002578646,-0.036866922,0.0019702392,-0.057438385,0.007807846,0.00037754976,-0.0050066737,-0.004130732,2.0447762e-05,487.9847,0.1000061,0.010000001,-487.9847,0.12049357,0.1131551,0.08043298,0.049343884,inf,inf,inf,inf,inf,160,1,1,1,1,3,3,2,1,3,1,1,1,0,3,0,0
1771685123100000,1771685123100000,1771685123100000,1771684928340000,47.3977419,8.5455939,0.0037547338,-0.07332737,0.010498047,0.004007112,-0.0025302004,-487.9847,-0.01734511,-0.013384065,-0.035012,-0.06564337,-0.00090424286,0.00046052953,-0.0002578646,0.022326536,0.018948281,-0.0066515054,0.007813234,0.00037766038,-0.0050054397,-0.004130732,2.049204e-05,487.9847,0.1000061,0.010000001,-487.9847,0.12089983,0.11334709,0.08073231,0.04941644,inf,inf,inf,inf,inf,160,1,1,1,1,3,3,2,1,3,1,1,1,0,3,0,0
1771685123108000,1771685123108000,1771685123108000,1771684928340000,47.3977419,8.5455939,0.0037827645,-0.07340581,0.010253906,0.004007112,-0.0025302004,-487.9847,-0.016983844,-0.013730997,-0.035235867,-0.06567041,-0.00090424286,0.00046052953,-0.0002578646,0.029548666,-0.048817657,-0.030127352,0.0078003537,0.0003768483,-0.0050223307,-0.004130732,2.0525496e-05,487.9847,0.1000061,0.010000001,-487.9847,0.12130646,0.11359877,0.08102306,0.049499273,inf,inf,inf,inf,inf,160,1,1,1,1,3,3,2,1,3,1,1,1,0,3,0,0
1771685123116000,1771685123116000,1771685123116000,1771684928340000,47.3977419,8.5455939,0.0038091205,-0.07348804,0.010009766,0.004007112,-0.0025302004,-487.9847,-0.016581437,-0.013945237,-0.035353974,-0.06558925,-0.00090424286,0.00046052953,-0.0002578646,0.03515599,-0.032080326,-0.016939359,0.007763509,0.00037695872,-0.005059396,-0.004130732,2.0569842e-05,487.9847,0.1000061,0.010000001,-487.9847,0.121718176,0.11385129,0.08132374,0.049581982,inf,inf,inf,inf,inf,160,1,1,1,1,3,3,2,1,3,1,1,1,0,3,0,0
1771685123124000,1771685123124000,1771685123124000,1771684928340000,47.3977419,8.5455939,0.0038340944,-0.07356979,0.009735107,0.004007112,-0.0025302004,-487.9847,-0.016277732,-0.013798778,-0.035456605,-0.0654903,-0.00090424286,0.00046052953,-0.0002578646,0.023261545,0.013151878,-0.015035736,0.0076966216,0.00037706914,-0.00512636,-0.004130732,2.0614225e-05,487.9847,0.1000061,0.010000001,-487.9847,0.12213266,0.11410464,0.081624605,0.049664564,inf,inf,inf,inf,inf,160,1,1,1,1,3,3,2,1,3,1,1,1,0,3,0,0
1771685123132000,1771685123132000,1771685123132000,1771684928340000,47.3977419,8.5455939,0.0038887816,-0.07363919,0.009460449,0.004007112,-0.0025302004,-487.9847,-0.015976017,-0.014292764,-0.03571174,-0.06557514,-0.00090424286,0.00046052953,-0.0002578646,0.020406961,-0.06845302,-0.03372272,0.007633967,0.00037715913,-0.0051889443,-0.004130732,2.0378106e-05,487.9847,0.1000061,0.010000001,-487.9847,0.11988521,0.11277881,0.07997638,0.0492181,inf,inf,inf,inf,inf,160,1,1,1,1,3,3,2,1,3,1,1,1,0,3,0,0
1771685123140000,1771685123140000,1771685123140000,1771684928340000,47.3977419,8.5455939,0.0039406684,-0.07371328,0.009185791,0.004007112,-0.0025302004,-487.9847,-0.01569991,-0.014798752,-0.03565528,-0.06534594,-0.00090424286,0.00046052953,-0.0002578646,0.017717978,-0.069768794,0.005186535,0.0076724347,0.00037726967,-0.0051503954,-0.004130732,2.0422327e-05,487.9847,0.1000061,0.010000001,-487.9847,0.1202873,0.11302853,0.08027704,0.049301237,inf,inf,inf,inf,inf,160,1,1,1,1,3,3,2,1,3,1,1,1,0,3,0,0
1771685123148000,1771685123148000,1771685123148000,1771684928340000,47.3977419,8.5455939,0.003990668,-0.07379109,0.008911133,0.004007112,-0.0025302004,-487.9847,-0.015236777,-0.015044926,-0.035545748,-0.065061316,-0.00090424286,0.00046052953,-0.0002578646,0.041594822,-0.037114292,0.011781695,0.007652222,0.0003773802,-0.005170376,-0.004130732,2.0466587e-05,487.9847,0.1000061,0.010000001,-487.9847,0.120692134,0.11327907,0.080576755,0.04938425,inf,inf,inf,inf,inf,160,1,1,1,1,3,3,2,1,3,1,1,1,0,3,0,0
1771685123156000,1771685123156000,1771685123156000,1771684928340000,47.3977419,8.5455939,0.004039873,-0.073871665,0.008636475,0.004007112,-0.0025302004,-487.9847,-0.014795339,-0.015279973,-0.035506733,-0.064840935,-0.00090424286,0.00046052953,-0.0002578646,0.039361447,-0.03555024,0.002805609,0.007711963,0.00037749083,-0.0051102587,-0.004130732,2.0510883e-05,487.9847,0.1000061,0.010000001,-487.9847,0.12109972,0.11347128,0.08087732,0.0494567,inf,inf,inf,inf,inf,160,1,1,1,1,3,3,2,1,3,1,1,1,0,3,0,0
1771685123164000,1771685123164000,1771685123164000,1771684928340000,47.3977419,8.5455939,0.004085555,-0.07395364,0.008392334,0.004007112,-0.0025302004,-487.9847,-0.014874156,-0.015264065,-0.035671946,-0.06482274,-0.00090424286,0.00046052953,-0.0002578646,-0.025204003,-0.0040076044,-0.022755003,0.0076850196,0.00037760148,-0.0051366803,-0.004130732,2.0555217e-05,487.9847,0.1000061,0.010000001,-487.9847,0.12151006,0.11372337,0.08117768,0.049539473,inf,inf,inf,inf,inf,160,1,1,1,1,3,3,2,1,3,1,1,1,0,3,0,0
1771685123172000,1771685123172000,1771685123172000,1771684928340000,47.3977419,8.5455939,0.004125763,-0.074037015,0.008117676,0.004007112,-0.0025302004,-487.9847,-0.015060782,-0.015515179,-0.035497177,-0.064462595,-0.00090424286,0.00046052953,-0.0002578646,-0.038224854,-0.037208587,0.01971144,0.007659029,0.00037679003,-0.0051620095,-0.004130732,2.058866e-05,487.9847,0.1000061,0.010000001,-487.9847,0.1219207,0.11397629,0.08146964,0.04962212,inf,inf,inf,inf,inf,160,1,1,1,1,3,3,2,1,3,1,1,1,0,3,0,0
1771685123180000,1771685123180000,1771685123180000,1771684928340000,47.3977419,8.5455939,0.0041820398,-0.07412174,0.007843018,0.004007112,-0.0025302004,-487.9847,-0.015087285,-0.015910678,-0.035386417,-0.064192034,-0.00090424286,0.00046052953,-0.0002578646,-0.02027855,-0.056250047,0.011860858,0.0076201553,0.00037687988,-0.0052001057,-0.004130732,2.0354679e-05,487.9847,0.1000061,0.010000001,-487.9847,0.11968828,0.112655595,0.07983299,0.04917755,inf,inf,inf,inf,inf,160,1,1,1,1,3,3,2,1,3,1,1,1,0,3,0,0
1771685123188000,1771685123188000,1771685123188000,1771684928340000,47.3977419,8.5455939,0.004233944,-0.07420901,0.0075683594,0.004007112,-0.0025302004,-487.9847,-0.014893287,-0.015962033,-0.035347063,-0.06399005,-0.00090424286,0.00046052953,-0.0002578646,0.007777194,-0.013050588,0.0029010696,0.0075929277,0.00037699024,-0.0052265227,-0.004130732,2.0398882e-05,487.9847,0.1000061,0.010000001,-487.9847,0.12008904,0.11290489,0.08013288,0.04926075,inf,inf,inf,inf,inf,160,1,1,1,1,3,3,2,1,3,1,1,1,0,3,0,0
1771685123196000,1771685123196000,1771685123196000,1771684928340000,47.3977419,8.5455939,0.0042827763,-0.074296944,0.007293701,0.004007112,-0.0025302004,-487.9847,-0.014754702,-0.01603647,-0.035187665,-0.06366533,-0.00090424286,0.00046052953,-0.0002578646,0.0013301742,-0.015759883,0.017873941,0.0075933007,0.00037710066,-0.0052252063,-0.004130732,2.0443118e-05,487.9847,0.1000061,0.010000001,-487.9847,0.12049254,0.11315503,0.08043204,0.049343824,inf,inf,inf,inf,inf,160,1,1,1,1,3,3,2,1,3,1,1,1,0,3,0,0
1771685123204000,1771685123204000,1771685123204000,1771684928340000,47.3977419,8.5455939,0.004327705,-0.07438578,0.007019043,0.004007112,-0.0025302004,-487.9847,-0.01473521,-0.015891667,-0.03538559,-0.06369144,-0.00090424286,0.00046052953,-0.0002578646,-0.0130886575,0.011814039,-0.02694316,0.0076106596,0.00037721114,-0.0052067707,-0.004130732,2.0487396e-05,487.9847,0.1000061,0.010000001,-487.9847,0.12089879,0.113347024,0.08073145,0.04941638,inf,inf,inf,inf,inf,160,1,1,1,1,3,3,2,1,3,1,1,1,0,3,0,0
1771685123212000,1771685123212000,1771685123212000,1771684928340000,47.3977419,8.5455939,0.0043688104,-0.074473634,0.0067443848,0.004007112,-0.0025302004,-487.9847,-0.014490465,-0.015741488,-0.035602883,-0.06373471,-0.00090424286,0.00046052953,-0.0002578646,0.015524539,0.012655682,-0.029391142,0.007638495,0.0003773217,-0.005177732,-0.004130732,2.0531712e-05,487.9847,0.1000061,0.010000001,-487.9847,0.12130779,0.113598704,0.08103205,0.049499214,inf,inf,inf,inf,inf,160,1,1,1,1,3,3,2,1,3,1,1,1,0,3,0,0
1771685123220000,1771685123220000,1771685123220000,1771684928340000,47.3977419,8.5455939,0.0044084927,-0.074561805,0.0064697266,0.004007112,-0.0025302004,-487.9847,-0.014026812,-0.015824292,-0.035873484,-0.063829154,-0.00090424286,0.00046052953,-0.0002578646,0.043328103,-0.016302226,-0.036080364,0.0076927906,0.00037743224,-0.005122111,-0.004130732,2.0576064e-05,487.9847,0.1000061,0.010000001,-487.9847,0.12171955,0.11385123,0.081333086,0.049581923,inf,inf,inf,inf,inf,160,1,1,1,1,3,3,2,1,3,1,1,1,0,3,0,0
1771685123228000,1771685123228000,1771685123228000,1771684928340000,47.3977419,8.5455939,0.004448317,-0.0746518,0.006225586,0.004007112,-0.0025302004,-487.9847,-0.013482922,-0.016000671,-0.03596223,-0.063739695,-0.00090424286,0.00046052953,-0.0002578646,0.05379061,-0.0278421,-0.01337286,0.007705429,0.00037754295,-0.0051080296,-0.004130732,2.0620459e-05,487.9847,0.1000061,0.010000001,-487.9847,0.122134075,0.11410458,0.081633955,0.049664505,inf,inf,inf,inf,inf,160,1,1,1,1,3,3,2,1,3,1,1,1,0,3,0,0
1771685123236000,1771685123236000,1771685123236000,1771684928340000,47.3977419,8.5455939,0.004516506,-0.07473465,0.0059509277,0.004007112,-0.0025302004,-487.9847,-0.013602538,-0.016307408,-0.036150943,-0.06377274,-0.00090424286,0.00046052953,-0.0002578646,-0.03169254,-0.04550293,-0.025806481,0.007700953,0.0003776332,-0.005110945,-0.004130732,2.0384105e-05,487.9847,0.1000061,0.010000001,-487.9847,0.119886436,0.11277875,0.07998461,0.04921804,inf,inf,inf,inf,inf,160,1,1,1,1,3,3,2,1,3,1,1,1,0,3,0,0
1771685123244000,1771685123244000,1771685123244000,1771684928340000,47.3977419,8.5455939,0.0045784363,-0.07481879,0.005645752,0.004007112,-0.0025302004,-487.9847,-0.013683672,-0.016484506,-0.036166925,-0.063630305,-0.00090424286,0.00046052953,-0.0002578646,-0.026266959,-0.029481538,-0.0042398456,0.007647535,0.00037682088,-0.00516281,-0.004130732,2.041761e-05,487.9847,0.1000061,0.010000001,-487.9847,0.12028631,0.11302846,0.08027596,0.049301177,inf,inf,inf,inf,inf,160,1,1,1,1,3,3,2,1,3,1,1,1,0,3,0,0
1771685123252000,1771685123252000,1771685123252000,1771684928340000,47.3977419,8.5455939,0.0046351347,-0.074904464,0.0053710938,0.004007112,-0.0025302004,-487.9847,-0.013738031,-0.016587093,-0.036129966,-0.06343226,-0.00090424286,0.00046052953,-0.0002578646,-0.022441275,-0.01997244,0.0023529863,0.0076280343,0.00037693125,-0.005177431,-0.004130732,2.0461866e-05,487.9847,0.1000061,0.010000001,-487.9847,0.12069113,0.113279,0.08057586,0.04938419,inf,inf,inf,inf,inf,160,1,1,1,1,3,3,2,1,3,1,1,1,0,3,0,0
1771685123260000,1771685123260000,1771685123260000,1771684928340000,47.3977419,8.5455939,0.0046865083,-0.07499131,0.005126953,0.004007112,-0.0025302004,-487.9847,-0.013880924,-0.016484138,-0.036153387,-0.063288,-0.00090424286,0.00046052953,-0.0002578646,-0.033041023,0.005909222,-0.00536628,0.007681909,0.00037704187,-0.0051185787,-0.004130732,2.050617e-05,487.9847,0.1000061,0.010000001,-487.9847,0.1210987,0.11347121,0.08087657,0.04945664,inf,inf,inf,inf,inf,160,1,1,1,1,3,3,2,1,3,1,1,1,0,3,0,0
1771685123268000,1771685123268000,1771685123268000,1771684928340000,47.3977419,8.5455939,0.004731046,-0.07507796,0.004852295,0.004007112,-0.0025302004,-487.9847,-0.014303086,-0.016433043,-0.03637249,-0.063337095,-0.00090424286,0.00046052953,-0.0002578646,-0.06749898,-0.00038695632,-0.02984423,0.0076845954,0.0003771524,-0.00511082,-0.004130732,2.0550504e-05,487.9847,0.1000061,0.010000001,-487.9847,0.12150902,0.11372329,0.08117731,0.049539417,inf,inf,inf,inf,inf,160,1,1,1,1,3,3,2,1,3,1,1,1,0,3,0,0
1771685123276000,1771685123276000,1771685123276000,1771684928340000,47.3977419,8.5455939,0.0047688745,-0.07516524,0.0045776367,0.004007112,-0.0025302004,-487.9847,-0.014421017,-0.01641938,-0.03668792,-0.06348027,-0.00090424286,0.00046052953,-0.0002578646,-0.029028513,-0.0048887683,-0.041902527,0.0076211104,0.00037726288,-0.0051692356,-0.004130732,2.0594875e-05,487.9847,0.1000061,0.010000001,-487.9847,0.12192212,0.11397622,0.081478246,0.049622063,inf,inf,inf,inf,inf,160,1,1,1,1,3,3,2,1,3,1,1,1,0,3,0,0
1771685123284000,1771685123284000,1771685123284000,1771684928340000,47.3977419,8.5455939,0.00483159,-0.07523498,0.0043029785,0.004007112,-0.0025302004,-487.9847,-0.014298236,-0.01609793,-0.03682242,-0.063450746,-0.00090424286,0.00046052953,-0.0002578646,-0.0012395902,0.031810533,-0.019752419,0.0075630755,0.00037735252,-0.0052222097,-0.004130732,2.0360669e-05,487.9847,0.1000061,0.010000001,-487.9847,0.11968948,0.11265553,0.07984172,0.049177498,inf,inf,inf,inf,inf,160,1,1,1,1,3,3,2,1,3,1,1,1,0,3,0,0
1771685123292000,1771685123292000,1771685123292000,1771684928340000,47.3977419,8.5455939,0.004889281,-0.07530285,0.0040283203,0.004007112,-0.0025302004,-487.9847,-0.014453127,-0.015788985,-0.036731295,-0.06319319,-0.00090424286,0.00046052953,-0.0002578646,-0.035359263,0.030438183,0.008448026,0.0075360388,0.0003773023,-0.0052443533,-0.004130732,2.040279e-05,487.9847,0.1000061,0.010000001,-487.9847,0.12008991,0.112904824,0.08013933,0.049260702,inf,inf,inf,inf,inf,160,1,1,1,1,3,3,2,1,3,1,1,1,0,3,0,0
1771685123300000,1771685123300000,1771685123300000,1771684928340000,47.3977419,8.5455939,0.0049402537,-0.07537125,0.0037841797,0.004007112,-0.0025302004,-487.9847,-0.014693392,-0.015960833,-0.03650192,-0.06279512,-0.00090424286,0.00046052953,-0.0002578646,-0.045559842,-0.029441094,0.025727319,0.007533235,0.00037741274,-0.0052419906,-0.004130732,2.0447027e-05,487.9847,0.1000061,0.010000001,-487.9847,0.12049344,0.11315496,0.08043886,0.049343776,inf,inf,inf,inf,inf,160,1,1,1,1,3,3,2,1,3,1,1,1,0,3,0,0
1771685123308000,1771685123308000,1771685123308000,1771684928340000,47.3977419,8.5455939,0.0049847276,-0.075441614,0.0035095215,0.004007112,-0.0025302004,-487.9847,-0.01498341,-0.01598533,-0.035931267,-0.062050626,-0.00090424286,0.00046052953,-0.0002578646,-0.05139795,-0.010845298,0.0682692,0.0075049545,0.0003766021,-0.005265122,-0.004130732,2.0480504e-05,487.9847,0.1000061,0.010000001,-487.9847,0.12089739,0.11334695,0.08072956,0.049416333,inf,inf,inf,inf,inf,160,1,1,1,1,3,3,2,1,3,1,1,1,0,3,0,0
1771685123316000,1771685123316000,1771685123316000,1771684928340000,47.3977419,8.5455939,0.005023347,-0.07551348,0.0032653809,0.004007112,-0.0025302004,-487.9847,-0.015036169,-0.01611304,-0.036232818,-0.062176432,-0.00090424286,0.00046052953,-0.0002578646,-0.021290418,-0.023541152,-0.040754206,0.0075328643,0.00037671236,-0.0052318014,-0.004130732,2.0524807e-05,487.9847,0.1000061,0.010000001,-487.9847,0.121306375,0.11359864,0.08103001,0.049499165,inf,inf,inf,inf,inf,160,1,1,1,1,3,3,2,1,3,1,1,1,0,3,0,0
1771685123324000,1771685123324000,1771685123324000,1771684928340000,47.3977419,8.5455939,0.0050578807,-0.07558746,0.0030212402,0.004007112,-0.0025302004,-487.9847,-0.014875174,-0.016250985,-0.036300242,-0.06206632,-0.00090424286,0.00046052953,-0.0002578646,0.0058661895,-0.02461262,-0.011486,0.0075565036,0.00037682266,-0.0052027735,-0.004130732,2.0569147e-05,487.9847,0.1000061,0.010000001,-487.9847,0.12171811,0.11385115,0.08132983,0.049581874,inf,inf,inf,inf,inf,160,1,1,1,1,3,3,2,1,3,1,1,1,0,3,0,0
1771685123332000,1771685123332000,1771685123332000,1771684928340000,47.3977419,8.5455939,0.005089572,-0.07566319,0.0027770996,0.004007112,-0.0025302004,-487.9847,-0.014714661,-0.016289113,-0.036530327,-0.06211722,-0.00090424286,0.00046052953,-0.0002578646,0.0062305797,-0.011936688,-0.031815838,0.007586452,0.00037693293,-0.005167465,-0.004130732,2.0613523e-05,487.9847,0.1000061,0.010000001,-487.9847,0.12213262,0.11410451,0.08163017,0.04966446,inf,inf,inf,inf,inf,160,1,1,1,1,3,3,2,1,3,1,1,1,0,3,0,0
1771685123340000,1771685123340000,1771685123340000,1771684928340000,47.3977419,8.5455939,0.005145625,-0.07573402,0.0025024414,0.004007112,-0.0025302004,-487.9847,-0.014742449,-0.016011085,-0.03671196,-0.06212455,-0.00090424286,0.00046052953,-0.0002578646,-0.019485941,0.026327483,-0.026306601,0.0074877017,0.00037702164,-0.0052608876,-0.004130732,2.0377352e-05,487.9847,0.1000061,0.010000001,-487.9847,0.11988512,0.112778686,0.079981126,0.049217995,inf,inf,inf,inf,inf,160,1,1,1,1,3,3,2,1,3,1,1,1,0,3,0,0
1771685123348000,1771685123348000,1771685123348000,1771684928340000,47.3977419,8.5455939,0.005196232,-0.07580442,0.0022583008,0.004007112,-0.0025302004,-487.9847,-0.014794737,-0.016002264,-0.03671219,-0.061948877,-0.00090424286,0.00046052953,-0.0002578646,-0.022076694,-0.0071011395,-0.0036121344,0.0074476656,0.000377132,-0.0052957535,-0.004130732,2.0421568e-05,487.9847,0.1000061,0.010000001,-487.9847,0.120287225,0.11302839,0.0802802,0.049301136,inf,inf,inf,inf,inf,160,1,1,1,1,3,3,2,1,3,1,1,1,0,3,0,0
1771685123356000,1771685123356000,1771685123356000,1771684928340000,47.3977419,8.5455939,0.005240667,-0.07587588,0.0020141602,0.004007112,-0.0025302004,-487.9847,-0.015225952,-0.016008891,-0.036453214,-0.061512496,-0.00090424286,0.00046052953,-0.0002578646,-0.0689871,-0.00881205,0.028806737,0.0073777023,0.00037724263,-0.005360582,-0.004130732,2.046583e-05,487.9847,0.1000061,0.010000001,-487.9847,0.12069207,0.11327893,0.08058042,0.049384143,inf,inf,inf,inf,inf,160,1,1,1,1,3,3,2,1,3,1,1,1,0,3,0,0
1771685123364000,1771685123364000,1771685123364000,1771684928340000,47.3977419,8.5455939,0.0052781072,-0.075949416,0.0017700195,0.004007112,-0.0025302004,-487.9847,-0.015237395,-0.016280962,-0.03660186,-0.061478276,-0.00090424286,0.00046052953,-0.0002578646,-0.016070053,-0.041780453,-0.022250691,0.00728534,0.000377353,-0.005447847,-0.004130732,2.0510115e-05,487.9847,0.1000061,0.010000001,-487.9847,0.121099666,0.11347114,0.08088109,0.04945659,inf,inf,inf,inf,inf,160,1,1,1,1,3,3,2,1,3,1,1,1,0,3,0,0
1771685123372000,1771685123372000,1771685123372000,1771684928340000,47.3977419,8.5455939,0.0053125424,-0.07602642,0.0015258789,0.004007112,-0.0025302004,-487.9847,-0.0149349505,-0.016616829,-0.036981322,-0.061673593,-0.00090424286,0.00046052953,-0.0002578646,0.023601823,-0.049544875,-0.051081177,0.007237912,0.00037746358,-0.00549022,-0.004130732,2.0554447e-05,487.9847,0.1000061,0.010000001,-487.9847,0.12151002,0.11372323,0.0811823,0.049539365,inf,inf,inf,inf,inf,160,1,1,1,1,3,3,2,1,3,1,1,1,0,3,0,0
1771685123380000,1771685123380000,1771685123380000,1771684928340000,47.3977419,8.5455939,0.0053461255,-0.07610653,0.0012817383,0.004007112,-0.0025302004,-487.9847,-0.014917066,-0.017119387,-0.037288886,-0.06179578,-0.00090424286,0.00046052953,-0.0002578646,-0.011936355,-0.070466615,-0.042071562,0.007181936,0.0003766527,-0.005541188,-0.004130732,2.0587886e-05,487.9847,0.1000061,0.010000001,-487.9847,0.12192068,0.11397616,0.08147385,0.04962201,inf,inf,inf,inf,inf,160,1,1,1,1,3,3,2,1,3,1,1,1,0,3,0,0
1771685123388000,1771685123388000,1771685123388000,1771684928340000,47.3977419,8.5455939,0.0054008877,-0.07617096,0.0010375977,0.004007112,-0.0025302004,-487.9847,-0.014957658,-0.017378436,-0.037571713,-0.061896436,-0.00090424286,0.00046052953,-0.0002578646,-0.021198474,-0.042040177,-0.039603557,0.0071314257,0.00037674088,-0.0055845967,-0.004130732,2.0353878e-05,487.9847,0.1000061,0.010000001,-487.9847,0.119688205,0.11265547,0.079837196,0.049177445,inf,inf,inf,inf,inf,160,1,1,1,1,3,3,2,1,3,1,1,1,0,3,0,0
1771685123396000,1771685123396000,1771685123396000,1771684928340000,47.3977419,8.5455939,0.0054516476,-0.07623804,0.00079345703,0.004007112,-0.0025302004,-487.9847,-0.014758358,-0.017278263,-0.037687026,-0.061828345,-0.00090424286,0.00046052953,-0.0002578646,0.009257322,0.0031172037,-0.018625053,0.007106574,0.00037685118,-0.005602581,-0.004130732,2.0398076e-05,487.9847,0.1000061,0.010000001,-487.9847,0.12008898,0.112904765,0.08013648,0.049260646,inf,inf,inf,inf,inf,160,1,1,1,1,3,3,2,1,3,1,1,1,0,3,0,0
1771685123404000,1771685123404000,1771685123404000,1771684928340000,47.3977419,8.5455939,0.0055002444,-0.0763043,0.0005493164,0.004007112,-0.0025302004,-487.9847,-0.014360985,-0.017030878,-0.038109213,-0.062065985,-0.00090424286,0.00046052953,-0.0002578646,0.034474127,0.021768812,-0.056945715,0.0071436116,0.00037696146,-0.005558724,-0.004130732,2.0442312e-05,487.9847,0.1000061,0.010000001,-487.9847,0.120492496,0.113154896,0.080435924,0.049343716,inf,inf,inf,inf,inf,160,1,1,1,1,3,3,2,1,3,1,1,1,0,3,0,0
1771685123412000,1771685123412000,1771685123412000,1771684928340000,47.3977419,8.5455939,0.00554635,-0.07637108,0.00033569336,0.004007112,-0.0025302004,-487.9847,-0.014225955,-0.017007567,-0.038339067,-0.06210623,-0.00090424286,0.00046052953,-0.0002578646,0.0021277359,-0.005996131,-0.032994892,0.007142407,0.00037707176,-0.0055532525,-0.004130732,2.0486583e-05,487.9847,0.1000061,0.010000001,-487.9847,0.12089876,0.11334689,0.08073576,0.049416274,inf,inf,inf,inf,inf,160,1,1,1,1,3,3,2,1,3,1,1,1,0,3,0,0
1771685123420000,1771685123420000,1771685123420000,1771684928340000,47.3977419,8.5455939,0.0055879215,-0.07643877,9.1552734e-05,0.004007112,-0.0025302004,-487.9847,-0.014338048,-0.016936371,-0.03824306,-0.06181976,-0.00090424286,0.00046052953,-0.0002578646,-0.028329892,0.00022481798,0.0077788713,0.007203393,0.00037718212,-0.0054857293,-0.004130732,2.0530893e-05,487.9847,0.1000061,0.010000001,-487.9847,0.121307775,0.11359857,0.081036255,0.049499106,inf,inf,inf,inf,inf,160,1,1,1,1,3,3,2,1,3,1,1,1,0,3,0,0
1771685123428000,1771685123428000,1771685123428000,1771684928340000,47.3977419,8.5455939,0.0056246114,-0.076508336,-0.00015258789,0.004007112,-0.0025302004,-487.9847,-0.014289917,-0.01719541,-0.038244195,-0.061629586,-0.00090424286,0.00046052953,-0.0002578646,-0.007874826,-0.040822793,-0.0043241302,0.007150287,0.0003772926,-0.005532443,-0.004130732,2.0575242e-05,487.9847,0.1000061,0.010000001,-487.9847,0.121719554,0.113851085,0.08133743,0.049581815,inf,inf,inf,inf,inf,160,1,1,1,1,3,3,2,1,3,1,1,1,0,3,0,0
1771685123436000,1771685123436000,1771685123436000,1771684928340000,47.3977419,8.5455939,0.0056590918,-0.076581046,-0.00036621094,0.004007112,-0.0025302004,-487.9847,-0.013843508,-0.017381154,-0.038179208,-0.061373442,-0.00090424286,0.00046052953,-0.0002578646,0.042320028,-0.031436976,0.0039800066,0.007148418,0.00037740305,-0.0055280654,-0.004130732,2.0619624e-05,487.9847,0.1000061,0.010000001,-487.9847,0.12213409,0.11410444,0.081638545,0.049664397,inf,inf,inf,inf,inf,160,1,1,1,1,3,3,2,1,3,1,1,1,0,3,0,0
1771685123444000,1771685123444000,1771685123444000,1771684928340000,47.3977419,8.5455939,0.005710368,-0.07661618,-0.00061035156,0.004007112,-0.0025302004,-487.9847,-0.013379319,-0.017431585,-0.03876922,-0.06177387,-0.00090424286,0.00046052953,-0.0002578646,0.042928733,-0.017523466,-0.07859198,0.0071382085,0.00037657062,-0.005532171,-0.004130732,2.0372561e-05,487.9847,0.1000061,0.010000001,-487.9847,0.11988419,0.11277862,0.07997971,0.049217932,inf,inf,inf,inf,inf,160,1,1,1,1,3,3,2,1,3,1,1,1,0,3,0,0
1771685123452000,1771685123452000,1771685123452000,1771684928340000,47.3977419,8.5455939,0.005758991,-0.07665439,-0.0008544922,0.004007112,-0.0025302004,-487.9847,-0.013390521,-0.017583523,-0.038980648,-0.061794996,-0.00090424286,0.00046052953,-0.0002578646,-0.016050205,-0.029912591,-0.03121048,0.0070824134,0.00037668092,-0.005582207,-0.004130732,2.0416777e-05,487.9847,0.1000061,0.010000001,-487.9847,0.120286286,0.11302833,0.08027842,0.04930107,inf,inf,inf,inf,inf,160,1,1,1,1,3,3,2,1,3,1,1,1,0,3,0,0
1771685123460000,1771685123460000,1771685123460000,1771684928340000,47.3977419,8.5455939,0.005801283,-0.076694846,-0.0010986328,0.004007112,-0.0025302004,-487.9847,-0.013826413,-0.017409425,-0.038903765,-0.061527267,-0.00090424286,0.00046052953,-0.0002578646,-0.06870686,0.011136682,0.0048861834,0.0070821913,0.00037679114,-0.005576814,-0.004130732,2.046103e-05,487.9847,0.1000061,0.010000001,-487.9847,0.12069111,0.11327887,0.080576494,0.049384076,inf,inf,inf,inf,inf,160,1,1,1,1,3,3,2,1,3,1,1,1,0,3,0,0
1771685123468000,1771685123468000,1771685123468000,1771684928340000,47.3977419,8.5455939,0.005836781,-0.07673542,-0.0013122559,0.004007112,-0.0025302004,-487.9847,-0.013933411,-0.017265517,-0.038601942,-0.061030153,-0.00090424286,0.00046052953,-0.0002578646,-0.027176598,0.007651392,0.032935288,0.0071078595,0.0003769014,-0.005545679,-0.004130732,2.0505318e-05,487.9847,0.1000061,0.010000001,-487.9847,0.12109869,0.113471076,0.08087722,0.049456522,inf,inf,inf,inf,inf,160,1,1,1,1,3,3,2,1,3,1,1,1,0,3,0,0
1771685123476000,1771685123476000,1771685123476000,1771684928340000,47.3977419,8.5455939,0.0058684982,-0.07677804,-0.0015258789,0.004007112,-0.0025302004,-487.9847,-0.013839865,-0.01729212,-0.03869397,-0.06092661,-0.00090424286,0.00046052953,-0.0002578646,-0.001699952,-0.01338629,-0.016237607,0.00710706,0.00037701175,-0.0055411644,-0.004130732,2.0549647e-05,487.9847,0.1000061,0.010000001,-487.9847,0.12150902,0.11372317,0.08117774,0.049539298,inf,inf,inf,inf,inf,160,1,1,1,1,3,3,2,1,3,1,1,1,0,3,0,0
1771685123484000,1771685123484000,1771685123484000,1771684928340000,47.3977419,8.5455939,0.0058967946,-0.07682199,-0.0017700195,0.004007112,-0.0025302004,-487.9847,-0.013695368,-0.017155267,-0.03883887,-0.060875684,-0.00090424286,0.00046052953,-0.0002578646,0.005071613,0.0073158285,-0.022790859,0.007167037,0.00037712214,-0.0054760277,-0.004130732,2.059401e-05,487.9847,0.1000061,0.010000001,-487.9847,0.12192212,0.11397608,0.08147896,0.049621943,inf,inf,inf,inf,inf,160,1,1,1,1,3,3,2,1,3,1,1,1,0,3,0,0
1771685123492000,1771685123492000,1771685123492000,1771684928340000,47.3977419,8.5455939,0.005940676,-0.076837555,-0.0019836426,0.004007112,-0.0025302004,-487.9847,-0.013533094,-0.017727967,-0.039152566,-0.06099765,-0.00090424286,0.00046052953,-0.0002578646,0.0054331026,-0.08386171,-0.04452094,0.007211309,0.00037705107,-0.005426748,-0.004130732,2.0357738e-05,487.9847,0.1000061,0.010000001,-487.9847,0.11968911,0.112655394,0.0798404,0.049177375,inf,inf,inf,inf,inf,160,1,1,1,1,3,3,2,1,3,1,1,1,0,3,0,0
1771685123500000,1771685123500000,1771685123500000,1771684928340000,47.3977419,8.5455939,0.0059816055,-0.076860376,-0.0022277832,0.004007112,-0.0025302004,-487.9847,-0.013422731,-0.018096346,-0.039552487,-0.0612055,-0.00090424286,0.00046052953,-0.0002578646,-0.00062142813,-0.05799182,-0.055225097,0.007255171,0.00037716134,-0.005378628,-0.004130732,2.0401932e-05,487.9847,0.1000061,0.010000001,-487.9847,0.1200899,0.11290469,0.08013971,0.04926058,inf,inf,inf,inf,inf,160,1,1,1,1,3,3,2,1,3,1,1,1,0,3,0,0
1771685123508000,1771685123508000,1771685123508000,1771684928340000,47.3977419,8.5455939,0.0060184314,-0.07688683,-0.0024414062,0.004007112,-0.0025302004,-487.9847,-0.013457199,-0.01811238,-0.039765295,-0.061225984,-0.00090424286,0.00046052953,-0.0002578646,-0.018296478,-0.013622625,-0.03176322,0.0072916267,0.00037727164,-0.005338063,-0.004130732,2.0446165e-05,487.9847,0.1000061,0.010000001,-487.9847,0.12049344,0.11315483,0.08043846,0.04934365,inf,inf,inf,inf,inf,160,1,1,1,1,3,3,2,1,3,1,1,1,0,3,0,0
1771685123516000,1771685123516000,1771685123516000,1771684928340000,47.3977419,8.5455939,0.0060531944,-0.076914564,-0.0026855469,0.004007112,-0.0025302004,-487.9847,-0.013220955,-0.018000243,-0.039925516,-0.061190706,-0.00090424286,0.00046052953,-0.0002578646,0.015655087,0.002499062,-0.025205312,0.0073474855,0.00037646145,-0.005278241,-0.004130732,2.0479642e-05,487.9847,0.1000061,0.010000001,-487.9847,0.12089739,0.113346815,0.08072944,0.049416207,inf,inf,inf,inf,inf,160,1,1,1,1,3,3,2,1,3,1,1,1,0,3,0,0
1771685123524000,1771685123524000,1771685123524000,1771684928340000,47.3977419,8.5455939,0.006086038,-0.07694413,-0.00289917,0.004007112,-0.0025302004,-487.9847,-0.013052249,-0.018035857,-0.03986619,-0.06093678,-0.00090424286,0.00046052953,-0.0002578646,0.0076219887,-0.015659126,0.0023087484,0.0073242285,0.00037657158,-0.0052960236,-0.004130732,2.0523938e-05,487.9847,0.1000061,0.010000001,-487.9847,0.12130637,0.113598496,0.08103068,0.049499042,inf,inf,inf,inf,inf,160,1,1,1,1,3,3,2,1,3,1,1,1,0,3,0,0
1771685123532000,1771685123532000,1771685123532000,1771684928340000,47.3977419,8.5455939,0.0061150347,-0.07697645,-0.003112793,0.004007112,-0.0025302004,-487.9847,-0.013139934,-0.018004414,-0.039715864,-0.060592666,-0.00090424286,0.00046052953,-0.0002578646,-0.02402528,-0.006974961,0.013753771,0.0072605857,0.00037668174,-0.0053543355,-0.004130732,2.0568274e-05,487.9847,0.1000061,0.010000001,-487.9847,0.12171811,0.11385102,0.08133189,0.04958175,inf,inf,inf,inf,inf,160,1,1,1,1,3,3,2,1,3,1,1,1,0,3,0,0
1771685123540000,1771685123540000,1771685123540000,1771684928340000,47.3977419,8.5455939,0.006138639,-0.077009976,-0.0033569336,0.004007112,-0.0025302004,-487.9847,-0.013365791,-0.017818414,-0.03982892,-0.0605127,-0.00090424286,0.00046052953,-0.0002578646,-0.04091101,0.01264105,-0.019101424,0.0072268103,0.00037679193,-0.0053829234,-0.004130732,2.0612646e-05,487.9847,0.1000061,0.010000001,-487.9847,0.12213263,0.11410437,0.08163329,0.049664333,inf,inf,inf,inf,inf,160,1,1,1,1,3,3,2,1,3,1,1,1,0,3,0,0
1771685123548000,1771685123548000,1771685123548000,1771684928340000,47.3977419,8.5455939,0.0061872336,-0.07701388,-0.0035705566,0.004007112,-0.0025302004,-487.9847,-0.013068408,-0.018240929,-0.039880026,-0.060370836,-0.00090424286,0.00046052953,-0.0002578646,0.02225071,-0.06604609,-0.012168194,0.007212409,0.00037688052,-0.0053923344,-0.004130732,2.0376423e-05,487.9847,0.1000061,0.010000001,-487.9847,0.11988509,0.11277855,0.07998451,0.049217872,inf,inf,inf,inf,inf,160,1,1,1,1,3,3,2,1,3,1,1,1,0,3,0,0
1771685123556000,1771685123556000,1771685123556000,1771684928340000,47.3977419,8.5455939,0.006231702,-0.07702557,-0.0037841797,0.004007112,-0.0025302004,-487.9847,-0.013255817,-0.01885246,-0.03964878,-0.059947368,-0.00090424286,0.00046052953,-0.0002578646,-0.037909795,-0.0893153,0.023215542,0.0072474433,0.0003769908,-0.005352733,-0.004130732,2.0420635e-05,487.9847,0.1000061,0.010000001,-487.9847,0.1202872,0.11302826,0.08028524,0.049301013,inf,inf,inf,inf,inf,160,1,1,1,1,3,3,2,1,3,1,1,1,0,3,0,0
1771685123564000,1771685123564000,1771685123564000,1771684928340000,47.3977419,8.5455939,0.00627232,-0.0770419,-0.0039978027,0.004007112,-0.0025302004,-487.9847,-0.012890182,-0.018689103,-0.03969556,-0.05980261,-0.00090424286,0.00046052953,-0.0002578646,0.031648826,0.007891399,-0.01145061,0.0073070102,0.00037710104,-0.0052887923,-0.004130732,2.0464884e-05,487.9847,0.1000061,0.010000001,-487.9847,0.12069206,0.113278806,0.08058566,0.049384024,inf,inf,inf,inf,inf,160,1,1,1,1,3,3,2,1,3,1,1,1,0,3,0,0
1771685123572000,1771685123572000,1771685123572000,1771684928340000,47.3977419,8.5455939,0.0063114893,-0.07705983,-0.004211426,0.004007112,-0.0025302004,-487.9847,-0.012699226,-0.018643118,-0.039670274,-0.059583463,-0.00090424286,0.00046052953,-0.0002578646,0.010221532,-0.006438948,-0.0024610197,0.0073040426,0.00037721157,-0.005287572,-0.004130732,2.0509178e-05,487.9847,0.1000061,0.010000001,-487.9847,0.12109967,0.11347101,0.0808854,0.04945647,inf,inf,inf,inf,inf,160,1,1,1,1,3,3,2,1,3,1,1,1,0,3,0,0
1771685123580000,1771685123580000,1771685123580000,1771684928340000,47.3977419,8.5455939,0.0063485843,-0.07708076,-0.0044555664,0.004007112,-0.0025302004,-487.9847,-0.012492606,-0.01858455,-0.040091004,-0.059811164,-0.00090424286,0.00046052953,-0.0002578646,0.012453862,-0.004514049,-0.058126632,0.0072928,0.00037640185,-0.00529481,-0.004130732,2.0542633e-05,487.9847,0.1000061,0.010000001,-487.9847,0.12150764,0.11372309,0.08117633,0.04953924,inf,inf,inf,inf,inf,160,1,1,1,1,3,3,2,1,3,1,1,1,0,3,0,0
1771685123588000,1771685123588000,1771685123588000,1771684928340000,47.3977419,8.5455939,0.006382673,-0.07710205,-0.0046691895,0.004007112,-0.0025302004,-487.9847,-0.0124789905,-0.018126499,-0.040391684,-0.059919674,-0.00090424286,0.00046052953,-0.0002578646,-0.01127209,0.045735616,-0.043036878,0.00725948,0.0003765119,-0.0053245383,-0.004130732,2.0586986e-05,487.9847,0.1000061,0.010000001,-487.9847,0.12192072,0.11397602,0.081476904,0.049621888,inf,inf,inf,inf,inf,160,1,1,1,1,3,3,2,1,3,1,1,1,0,3,0,0
1771685123596000,1771685123596000,1771685123596000,1771684928340000,47.3977419,8.5455939,0.006419042,-0.07709141,-0.0048828125,0.004007112,-0.0025302004,-487.9847,-0.012359684,-0.017888622,-0.04016197,-0.059505936,-0.00090424286,0.00046052953,-0.0002578646,0.0010012336,0.015667748,0.022733117,0.007271266,0.0003765998,-0.0053093396,-0.004130732,2.0352913e-05,487.9847,0.1000061,0.010000001,-487.9847,0.11968819,0.11265533,0.079841405,0.049177326,inf,inf,inf,inf,inf,160,1,1,1,1,3,3,2,1,3,1,1,1,0,3,0,0
1771685123604000,1771685123604000,1771685123604000,1771684928340000,47.3977419,8.5455939,0.006452122,-0.077081636,-0.005126953,0.004007112,-0.0025302004,-487.9847,-0.012319868,-0.01755664,-0.040215243,-0.059375674,-0.00090424286,0.00046052953,-0.0002578646,-0.008518584,0.027803605,-0.012542586,0.007286615,0.0003767099,-0.005290974,-0.004130732,2.0397105e-05,487.9847,0.1000061,0.010000001,-487.9847,0.12008898,0.11290462,0.080141276,0.049260527,inf,inf,inf,inf,inf,160,1,1,1,1,3,3,2,1,3,1,1,1,0,3,0,0
1771685123612000,1771685123612000,1771685123612000,1771684928340000,47.3977419,8.5455939,0.0064815334,-0.07707376,-0.005340576,0.004007112,-0.0025302004,-487.9847,-0.012352112,-0.017559053,-0.040073436,-0.05905083,-0.00090424286,0.00046052953,-0.0002578646,-0.01712185,-0.013629129,0.011937226,0.0072658653,0.0003768201,-0.0053088726,-0.004130732,2.0441335e-05,487.9847,0.1000061,0.010000001,-487.9847,0.12049252,0.11315476,0.080440484,0.0493436,inf,inf,inf,inf,inf,160,1,1,1,1,3,3,2,1,3,1,1,1,0,3,0,0
1771685123620000,1771685123620000,1771685123620000,1771684928340000,47.3977419,8.5455939,0.0065071178,-0.07706967,-0.005554199,0.004007112,-0.0025302004,-487.9847,-0.012284865,-0.017602753,-0.040108882,-0.058900792,-0.00090424286,0.00046052953,-0.0002578646,-0.004298742,-0.018431952,-0.0102375625,0.0073455083,0.0003769303,-0.0052265334,-0.004130732,2.0485604e-05,487.9847,0.1000061,0.010000001,-487.9847,0.12089879,0.11334675,0.08073955,0.04941615,inf,inf,inf,inf,inf,160,1,1,1,1,3,3,2,1,3,1,1,1,0,3,0,0
1771685123628000,1771685123628000,1771685123628000,1771684928340000,47.3977419,8.5455939,0.0065302937,-0.0770685,-0.0057678223,0.004007112,-0.0025302004,-487.9847,-0.012062667,-0.017578447,-0.040140428,-0.058747582,-0.00090424286,0.00046052953,-0.0002578646,0.01544612,-0.009579319,-0.009656417,0.007362307,0.0003770404,-0.0052071977,-0.004130732,2.05299e-05,487.9847,0.1000061,0.010000001,-487.9847,0.12130782,0.113598436,0.081040025,0.049498986,inf,inf,inf,inf,inf,160,1,1,1,1,3,3,2,1,3,1,1,1,0,3,0,0
1771685123636000,1771685123636000,1771685123636000,1771684928340000,47.3977419,8.5455939,0.0065518105,-0.07707129,-0.0059814453,0.004007112,-0.0025302004,-487.9847,-0.011820798,-0.01778374,-0.039584167,-0.058007285,-0.00090424286,0.00046052953,-0.0002578646,0.018274672,-0.037943568,0.06390968,0.0074208565,0.00037715075,-0.0051462604,-0.004130732,2.0574247e-05,487.9847,0.1000061,0.010000001,-487.9847,0.12171961,0.11385095,0.08134094,0.04958169,inf,inf,inf,inf,inf,160,1,1,1,1,3,3,2,1,3,1,1,1,0,3,0,0
1771685123644000,1771685123644000,1771685123644000,1771684928340000,47.3977419,8.5455939,0.006572363,-0.07707794,-0.0061950684,0.004007112,-0.0025302004,-487.9847,-0.011426934,-0.017786361,-0.03937805,-0.05761781,-0.00090424286,0.00046052953,-0.0002578646,0.03762922,-0.01227853,0.020230187,0.00743592,0.00037726093,-0.005128959,-0.004130732,2.0618621e-05,487.9847,0.1000061,0.010000001,-487.9847,0.12213418,0.1141043,0.08164262,0.049664274,inf,inf,inf,inf,inf,160,1,1,1,1,3,3,2,1,3,1,1,1,0,3,0,0
1771685123652000,1771685123652000,1771685123652000,1771684928340000,47.3977419,8.5455939,0.0066082957,-0.07705556,-0.0064086914,0.004007112,-0.0025302004,-487.9847,-0.011322847,-0.017692164,-0.03951697,-0.05758329,-0.00090424286,0.00046052953,-0.0002578646,-0.00013943917,-0.002602729,-0.02338737,0.0073839594,0.00037642865,-0.0051788217,-0.004130732,2.0371488e-05,487.9847,0.1000061,0.010000001,-487.9847,0.11988421,0.112778485,0.07998497,0.049217816,inf,inf,inf,inf,inf,160,1,1,1,1,3,3,2,1,3,1,1,1,0,3,0,0
1771685123660000,1771685123660000,1771685123660000,1771684928340000,47.3977419,8.5455939,0.006640339,-0.07703688,-0.006652832,0.004007112,-0.0025302004,-487.9847,-0.011489245,-0.01788626,-0.039556198,-0.057449322,-0.00090424286,0.00046052953,-0.0002578646,-0.033555035,-0.0382528,-0.010825227,0.0073691634,0.0003765387,-0.005193329,-0.004130732,2.0415697e-05,487.9847,0.1000061,0.010000001,-487.9847,0.120286316,0.11302819,0.08028496,0.049300957,inf,inf,inf,inf,inf,160,1,1,1,1,3,3,2,1,3,1,1,1,0,3,0,0
1771685123668000,1771685123668000,1771685123668000,1771684928340000,47.3977419,8.5455939,0.006667075,-0.07702281,-0.006866455,0.004007112,-0.0025302004,-487.9847,-0.011636239,-0.017778324,-0.03975849,-0.05747864,-0.00090424286,0.00046052953,-0.0002578646,-0.030748006,-0.00012215695,-0.031110363,0.007383139,0.00037664888,-0.005179184,-0.004130732,2.0459946e-05,487.9847,0.1000061,0.010000001,-487.9847,0.120691165,0.11327873,0.080585234,0.049383964,inf,inf,inf,inf,inf,160,1,1,1,1,3,3,2,1,3,1,1,1,0,3,0,0
1771685123676000,1771685123676000,1771685123676000,1771684928340000,47.3977419,8.5455939,0.006689094,-0.077010825,-0.007080078,0.004007112,-0.0025302004,-487.9847,-0.011876822,-0.017718915,-0.039429653,-0.056976065,-0.00090424286,0.00046052953,-0.0002578646,-0.042082522,-0.005826344,0.03534043,0.007368417,0.000376759,-0.0051938556,-0.004130732,2.050423e-05,487.9847,0.1000061,0.010000001,-487.9847,0.12109878,0.11347094,0.0808852,0.04945641,inf,inf,inf,inf,inf,160,1,1,1,1,3,3,2,1,3,1,1,1,0,3,0,0
1771685123684000,1771685123684000,1771685123684000,1771684928340000,47.3977419,8.5455939,0.006706018,-0.07700207,-0.007293701,0.004007112,-0.0025302004,-487.9847,-0.011947708,-0.01769329,-0.03894392,-0.056316927,-0.00090424286,0.00046052953,-0.0002578646,-0.020513473,-0.0096930945,0.05504675,0.007319764,0.00037686923,-0.0052426113,-0.004130732,2.0548552e-05,487.9847,0.1000061,0.010000001,-487.9847,0.12150914,0.113723025,0.08118508,0.049539182,inf,inf,inf,inf,inf,160,1,1,1,1,3,3,2,1,3,1,1,1,0,3,0,0
1771685123692000,1771685123692000,1771685123692000,1771684928340000,47.3977419,8.5455939,0.0067194174,-0.07699631,-0.0074768066,0.004007112,-0.0025302004,-487.9847,-0.011765661,-0.017688328,-0.038459413,-0.05565938,-0.00090424286,0.00046052953,-0.0002578646,0.011615681,-0.01198768,0.054984815,0.007238274,0.0003768198,-0.005324356,-0.004130732,2.0590782e-05,487.9847,0.1000061,0.010000001,-487.9847,0.121921845,0.11397595,0.08148409,0.049621824,inf,inf,inf,inf,inf,160,1,1,1,1,3,3,2,1,3,1,1,1,0,3,0,0
1771685123700000,1771685123700000,1771685123700000,1771684928340000,47.3977419,8.5455939,0.006737216,-0.07697513,-0.0076904297,0.004007112,-0.0025302004,-487.9847,-0.011753769,-0.017565787,-0.038362876,-0.05539849,-0.00090424286,0.00046052953,-0.0002578646,-0.010704817,0.0008860424,0.005964655,0.0072554587,0.0003769081,-0.0053080097,-0.004130732,2.035655e-05,487.9847,0.1000061,0.010000001,-487.9847,0.119689174,0.11265526,0.079846814,0.049177263,inf,inf,inf,inf,inf,160,1,1,1,1,3,3,2,1,3,1,1,1,0,3,0,0
1771685123708000,1771685123708000,1771685123708000,1771684928340000,47.3977419,8.5455939,0.006749719,-0.07695732,-0.007904053,0.004007112,-0.0025302004,-487.9847,-0.012151949,-0.017678225,-0.03815197,-0.055023383,-0.00090424286,0.00046052953,-0.0002578646,-0.06159771,-0.028095497,0.02036616,0.0072174724,0.00037701824,-0.005347154,-0.004130732,2.0400741e-05,487.9847,0.1000061,0.010000001,-487.9847,0.12008999,0.112904556,0.08014554,0.049260467,inf,inf,inf,inf,inf,160,1,1,1,1,3,3,2,1,3,1,1,1,0,3,0,0
1771685123716000,1771685123716000,1771685123716000,1771684928340000,47.3977419,8.5455939,0.0067568407,-0.07694402,-0.008117676,0.004007112,-0.0025302004,-487.9847,-0.012173958,-0.017642293,-0.038023684,-0.05473111,-0.00090424286,0.00046052953,-0.0002578646,-0.014188874,-0.009093106,0.010139774,0.007194577,0.00037620924,-0.0053713415,-0.004130732,2.0434229e-05,487.9847,0.1000061,0.010000001,-487.9847,0.12049127,0.113154694,0.080436304,0.049343538,inf,inf,inf,inf,inf,160,1,1,1,1,3,3,2,1,3,1,1,1,0,3,0,0
1771685123724000,1771685123724000,1771685123724000,1771684928340000,47.3977419,8.5455939,0.0067628743,-0.07693317,-0.008331299,0.004007112,-0.0025302004,-487.9847,-0.011754463,-0.017573413,-0.038217235,-0.0547589,-0.00090424286,0.00046052953,-0.0002578646,0.04134716,-0.004605301,-0.030060297,0.0071520125,0.00037631937,-0.005415859,-0.004130732,2.0478488e-05,487.9847,0.1000061,0.010000001,-487.9847,0.120897524,0.11334668,0.080736205,0.049416095,inf,inf,inf,inf,inf,160,1,1,1,1,3,3,2,1,3,1,1,1,0,3,0,0
1771685123732000,1771685123732000,1771685123732000,1771684928340000,47.3977419,8.5455939,0.0067675128,-0.076926306,-0.008514404,0.004007112,-0.0025302004,-487.9847,-0.011756715,-0.017768955,-0.038291637,-0.05466782,-0.00090424286,0.00046052953,-0.0002578646,-0.011035481,-0.0372977,-0.015067867,0.007168199,0.0003764293,-0.00540175,-0.004130732,2.052278e-05,487.9847,0.1000061,0.010000001,-487.9847,0.12130653,0.11359836,0.08103755,0.049498927,inf,inf,inf,inf,inf,160,1,1,1,1,3,3,2,1,3,1,1,1,0,3,0,0
1771685123740000,1771685123740000,1771685123740000,1771684928340000,47.3977419,8.5455939,0.0067677163,-0.07692448,-0.008728027,0.004007112,-0.0025302004,-487.9847,-0.01202904,-0.017951526,-0.0381412,-0.054353096,-0.00090424286,0.00046052953,-0.0002578646,-0.044461805,-0.03533097,0.013133044,0.007149291,0.00037653925,-0.0054228497,-0.004130732,2.0567113e-05,487.9847,0.1000061,0.010000001,-487.9847,0.1217183,0.11385088,0.08133876,0.049581632,inf,inf,inf,inf,inf,160,1,1,1,1,3,3,2,1,3,1,1,1,0,3,0,0
1771685123748000,1771685123748000,1771685123748000,1771684928340000,47.3977419,8.5455939,0.0067636254,-0.07692625,-0.00894165,0.004007112,-0.0025302004,-487.9847,-0.0120552685,-0.017948171,-0.037967645,-0.054016434,-0.00090424286,0.00046052953,-0.0002578646,-0.0133841885,-0.0117487945,0.01611607,0.007151812,0.00037664932,-0.0054226276,-0.004130732,2.0611478e-05,487.9847,0.1000061,0.010000001,-487.9847,0.122132845,0.114104226,0.081638955,0.049664214,inf,inf,inf,inf,inf,160,1,1,1,1,3,3,2,1,3,1,1,1,0,3,0,0
1771685123756000,1771685123756000,1771685123756000,1771684928340000,47.3977419,8.5455939,0.006774289,-0.076912865,-0.009155273,0.004007112,-0.0025302004,-487.9847,-0.011852223,-0.01772229,-0.038159,-0.054056183,-0.00090424286,0.00046052953,-0.0002578646,0.013683619,0.0142976465,-0.02996763,0.0071884277,0.00037673695,-0.005388411,-0.004130732,2.0375199e-05,487.9847,0.1000061,0.010000001,-487.9847,0.11988523,0.11277842,0.079989664,0.049217757,inf,inf,inf,inf,inf,160,1,1,1,1,3,3,2,1,3,1,1,1,0,3,0,0
1771685123764000,1771685123764000,1771685123764000,1771684928340000,47.3977419,8.5455939,0.00678396,-0.076900125,-0.0093688965,0.004007112,-0.0025302004,-487.9847,-0.011460313,-0.017382879,-0.038605053,-0.054350507,-0.00090424286,0.00046052953,-0.0002578646,0.037645236,0.028867237,-0.061699186,0.007153893,0.00037684702,-0.005425612,-0.004130732,2.0419406e-05,487.9847,0.1000061,0.010000001,-487.9847,0.12028736,0.113028124,0.0802888,0.049300898,inf,inf,inf,inf,inf,160,1,1,1,1,3,3,2,1,3,1,1,1,0,3,0,0
1771685123772000,1771685123772000,1771685123772000,1771684928340000,47.3977419,8.5455939,0.0067933104,-0.07688866,-0.0095825195,0.004007112,-0.0025302004,-487.9847,-0.011168486,-0.017151928,-0.03864012,-0.054233782,-0.00090424286,0.00046052953,-0.0002578646,0.025473922,0.0156788,-0.010224058,0.007113038,0.0003769572,-0.005469225,-0.004130732,2.0463649e-05,487.9847,0.1000061,0.010000001,-487.9847,0.12069224,0.11327867,0.08058872,0.049383905,inf,inf,inf,inf,inf,160,1,1,1,1,3,3,2,1,3,1,1,1,0,3,0,0
1771685123780000,1771685123780000,1771685123780000,1771684928340000,47.3977419,8.5455939,0.006802101,-0.07687862,-0.009796143,0.004007112,-0.0025302004,-487.9847,-0.010813852,-0.016879946,-0.03883369,-0.05427549,-0.00090424286,0.00046052953,-0.0002578646,0.033662297,0.02117201,-0.029976478,0.0071330857,0.00037706742,-0.0054520126,-0.004130732,2.050793e-05,487.9847,0.1000061,0.010000001,-487.9847,0.12109987,0.113470875,0.08088899,0.04945635,inf,inf,inf,inf,inf,160,1,1,1,1,3,3,2,1,3,1,1,1,0,3,0,0
1771685123788000,1771685123788000,1771685123788000,1771684928340000,47.3977419,8.5455939,0.0068108407,-0.076868825,-0.010009766,0.004007112,-0.0025302004,-487.9847,-0.010608549,-0.016764019,-0.039056882,-0.054346886,-0.00090424286,0.00046052953,-0.0002578646,0.015188207,0.0018109439,-0.03358116,0.0071650906,0.00037625816,-0.005422922,-0.004130732,2.0541378e-05,487.9847,0.1000061,0.010000001,-487.9847,0.121507846,0.11372296,0.08117861,0.049539123,inf,inf,inf,inf,inf,160,1,1,1,1,3,3,2,1,3,1,1,1,0,3,0,0
1771685123796000,1771685123796000,1771685123796000,1771684928340000,47.3977419,8.5455939,0.0068179173,-0.076861955,-0.010223389,0.004007112,-0.0025302004,-487.9847,-0.010461879,-0.016701568,-0.039228212,-0.0543666,-0.00090424286,0.00046052953,-0.0002578646,0.008177949,-0.0045244745,-0.0270023,0.007167925,0.00037636812,-0.0054213773,-0.004130732,2.0585725e-05,487.9847,0.1000061,0.010000001,-487.9847,0.121920936,0.11397588,0.081478834,0.04962177,inf,inf,inf,inf,inf,160,1,1,1,1,3,3,2,1,3,1,1,1,0,3,0,0
1771685123804000,1771685123804000,1771685123804000,1771684928340000,47.3977419,8.5455939,0.006838633,-0.07683215,-0.010437012,0.004007112,-0.0025302004,-487.9847,-0.010434214,-0.016529381,-0.03899302,-0.053989336,-0.00090424286,0.00046052953,-0.0002578646,-0.008141301,0.00704994,0.0233273,0.0071920427,0.00037645534,-0.0053986195,-0.004130732,2.035168e-05,487.9847,0.1000061,0.010000001,-487.9847,0.119688384,0.1126552,0.07984196,0.04917721,inf,inf,inf,inf,inf,160,1,1,1,1,3,3,2,1,3,1,1,1,0,3,0,0
1771685123812000,1771685123812000,1771685123812000,1771684928340000,47.3977419,8.5455939,0.006855845,-0.076806255,-0.010650635,0.004007112,-0.0025302004,-487.9847,-0.010410964,-0.016807381,-0.03882198,-0.053676147,-0.00090424286,0.00046052953,-0.0002578646,-0.008350085,-0.0488287,0.015415716,0.007279084,0.00037656535,-0.005313209,-0.004130732,2.0395866e-05,487.9847,0.1000061,0.010000001,-487.9847,0.12008918,0.1129045,0.080141336,0.04926041,inf,inf,inf,inf,inf,160,1,1,1,1,3,3,2,1,3,1,1,1,0,3,0,0
1771685123820000,1771685123820000,1771685123820000,1771684928340000,47.3977419,8.5455939,0.006871611,-0.07678672,-0.010894775,0.004007112,-0.0025302004,-487.9847,-0.010133141,-0.017174426,-0.03898286,-0.0536948,-0.00090424286,0.00046052953,-0.0002578646,0.023810072,-0.05957783,-0.025969462,0.007261696,0.00037667548,-0.005332246,-0.004130732,2.0440097e-05,487.9847,0.1000061,0.010000001,-487.9847,0.12049272,0.113154635,0.08044143,0.04934348,inf,inf,inf,inf,inf,160,1,1,1,1,3,3,2,1,3,1,1,1,0,3,0,0
1771685123828000,1771685123828000,1771685123828000,1771684928340000,47.3977419,8.5455939,0.006885607,-0.076772876,-0.011108398,0.004007112,-0.0025302004,-487.9847,-0.010040319,-0.017324252,-0.039071176,-0.053637862,-0.00090424286,0.00046052953,-0.0002578646,0.0010170888,-0.032050423,-0.016886739,0.007278469,0.0003767854,-0.0053171385,-0.004130732,2.0484353e-05,487.9847,0.1000061,0.010000001,-487.9847,0.120899,0.11334662,0.080740385,0.04941603,inf,inf,inf,inf,inf,160,1,1,1,1,3,3,2,1,3,1,1,1,0,3,0,0
1771685123836000,1771685123836000,1771685123836000,1771684928340000,47.3977419,8.5455939,0.0068982234,-0.07676359,-0.0113220215,0.004007112,-0.0025302004,-487.9847,-0.009708618,-0.017573213,-0.038859233,-0.053280883,-0.00090424286,0.00046052953,-0.0002578646,0.03120021,-0.04407492,0.020747537,0.007360075,0.00037689548,-0.0052372147,-0.004130732,2.0528649e-05,487.9847,0.1000061,0.010000001,-487.9847,0.121308036,0.1135983,0.08103929,0.049498867,inf,inf,inf,inf,inf,160,1,1,1,1,3,3,2,1,3,1,1,1,0,3,0,0
1771685123844000,1771685123844000,1771685123844000,1771684928340000,47.3977419,8.5455939,0.0069095,-0.07675807,-0.0115356445,0.004007112,-0.0025302004,-487.9847,-0.009729078,-0.017343523,-0.03909167,-0.053368643,-0.00090424286,0.00046052953,-0.0002578646,-0.012506468,0.01611523,-0.03470061,0.0073321,0.00037700566,-0.0052668755,-0.004130732,2.0572985e-05,487.9847,0.1000061,0.010000001,-487.9847,0.12171983,0.11385082,0.08133861,0.049581572,inf,inf,inf,inf,inf,160,1,1,1,1,3,3,2,1,3,1,1,1,0,3,0,0
1771685123852000,1771685123852000,1771685123852000,1771684928340000,47.3977419,8.5455939,0.0069163973,-0.0767539,-0.011749268,0.004007112,-0.0025302004,-487.9847,-0.010028473,-0.017323557,-0.039147716,-0.053280473,-0.00090424286,0.00046052953,-0.0002578646,-0.047078766,-0.009837909,-0.012555624,0.007343835,0.00037619687,-0.0052568326,-0.004130732,2.0606414e-05,487.9847,0.1000061,0.010000001,-487.9847,0.1221319,0.11410417,0.08162959,0.049664155,inf,inf,inf,inf,inf,160,1,1,1,1,3,3,2,1,3,1,1,1,0,3,0,0
1771685123860000,1771685123860000,1771685123860000,1771684928340000,47.3977419,8.5455939,0.0069453996,-0.076735735,-0.011962891,0.004007112,-0.0025302004,-487.9847,-0.010277517,-0.017466875,-0.03918164,-0.053181026,-0.00090424286,0.00046052953,-0.0002578646,-0.042937897,-0.032036364,-0.010215211,0.0073651765,0.00037628386,-0.005236409,-0.004130732,2.0370393e-05,487.9847,0.1000061,0.010000001,-487.9847,0.11988446,0.11277836,0.07997995,0.049217697,inf,inf,inf,inf,inf,160,1,1,1,1,3,3,2,1,3,1,1,1,0,3,0,0
1771685123868000,1771685123868000,1771685123868000,1771684928340000,47.3977419,8.5455939,0.006969864,-0.07672088,-0.012176514,0.004007112,-0.0025302004,-487.9847,-0.010382036,-0.017308258,-0.038871203,-0.05273744,-0.00090424286,0.00046052953,-0.0002578646,-0.024518207,0.006092817,0.03293622,0.0074100196,0.00037639381,-0.0051926384,-0.004130732,2.0414598e-05,487.9847,0.1000061,0.010000001,-487.9847,0.120286554,0.113028064,0.080279075,0.049300835,inf,inf,inf,inf,inf,160,1,1,1,1,3,3,2,1,3,1,1,1,0,3,0,0
1771685123876000,1771685123876000,1771685123876000,1771684928340000,47.3977419,8.5455939,0.00699105,-0.07670878,-0.012420654,0.004007112,-0.0025302004,-487.9847,-0.010144475,-0.017279245,-0.03880669,-0.05254001,-0.00090424286,0.00046052953,-0.0002578646,0.018589748,-0.009727742,0.0022994352,0.0074017616,0.00037650377,-0.0052019465,-0.004130732,2.045884e-05,487.9847,0.1000061,0.010000001,-487.9847,0.12069139,0.113278605,0.08057953,0.049383845,inf,inf,inf,inf,inf,160,1,1,1,1,3,3,2,1,3,1,1,1,0,3,0,0
1771685123884000,1771685123884000,1771685123884000,1771684928340000,47.3977419,8.5455939,0.0070122336,-0.07669885,-0.012634277,0.004007112,-0.0025302004,-487.9847,-0.00967408,-0.01699949,-0.039029032,-0.05262564,-0.00090424286,0.00046052953,-0.0002578646,0.04803144,0.021986252,-0.03359094,0.0073455092,0.0003766138,-0.00525921,-0.004130732,2.0503117e-05,487.9847,0.1000061,0.010000001,-487.9847,0.12109898,0.11347081,0.080879755,0.04945629,inf,inf,inf,inf,inf,160,1,1,1,1,3,3,2,1,3,1,1,1,0,3,0,0
1771685123892000,1771685123892000,1771685123892000,1771684928340000,47.3977419,8.5455939,0.0070330007,-0.07669016,-0.0128479,0.004007112,-0.0025302004,-487.9847,-0.00955902,-0.016662275,-0.038992886,-0.05245318,-0.00090424286,0.00046052953,-0.0002578646,0.0038558927,0.029665034,-0.0011776573,0.007322175,0.00037656486,-0.0052835094,-0.004130732,2.0545318e-05,487.9847,0.1000061,0.010000001,-487.9847,0.12150892,0.1137229,0.08117779,0.04953906,inf,inf,inf,inf,inf,160,1,1,1,1,3,3,2,1,3,1,1,1,0,3,0,0
1771685123900000,1771685123900000,1771685123900000,1771684928340000,47.3977419,8.5455939,0.0070517533,-0.07668273,-0.013061523,0.004007112,-0.0025302004,-487.9847,-0.00941822,-0.016520482,-0.03916873,-0.052493155,-0.00090424286,0.00046052953,-0.0002578646,0.007396639,0.005584201,-0.027576925,0.007324578,0.00037667478,-0.005282148,-0.004130732,2.0589661e-05,487.9847,0.1000061,0.010000001,-487.9847,0.121922016,0.11397582,0.08147791,0.049621705,inf,inf,inf,inf,inf,160,1,1,1,1,3,3,2,1,3,1,1,1,0,3,0,0
1771685123908000,1771685123908000,1771685123908000,1771684928340000,47.3977419,8.5455939,0.007096012,-0.07666658,-0.0132751465,0.004007112,-0.0025302004,-487.9847,-0.0088988235,-0.016515544,-0.03935553,-0.052550886,-0.00090424286,0.00046052953,-0.0002578646,0.05267757,-0.012974712,-0.029491724,0.0072979843,0.00037676247,-0.00530973,-0.004130732,2.0355565e-05,487.9847,0.1000061,0.010000001,-487.9847,0.11968939,0.11265514,0.07984125,0.049177144,inf,inf,inf,inf,inf,160,1,1,1,1,3,3,2,1,3,1,1,1,0,3,0,0
1771685123916000,1771685123916000,1771685123916000,1771684928340000,47.3977419,8.5455939,0.007140788,-0.07665418,-0.013519287,0.004007112,-0.0025302004,-487.9847,-0.008534698,-0.01656264,-0.03939942,-0.0524659,-0.00090424286,0.00046052953,-0.0002578646,0.033642966,-0.019109908,-0.011515337,0.0072224336,0.00037687254,-0.005386369,-0.004130732,2.0399752e-05,487.9847,0.1000061,0.010000001,-487.9847,0.12009019,0.11290444,0.08014196,0.049260344,inf,inf,inf,inf,inf,160,1,1,1,1,3,3,2,1,3,1,1,1,0,3,0,0
1771685123924000,1771685123924000,1771685123924000,1771684928340000,47.3977419,8.5455939,0.0071837367,-0.07664424,-0.01373291,0.004007112,-0.0025302004,-487.9847,-0.008346309,-0.016357841,-0.039376233,-0.052313995,-0.00090424286,0.00046052953,-0.0002578646,0.012150686,0.012738928,-0.0030212102,0.0071427305,0.00037606386,-0.0054671,-0.004130732,2.0433232e-05,487.9847,0.1000061,0.010000001,-487.9847,0.12049147,0.113154575,0.08043268,0.049343415,inf,inf,inf,inf,inf,160,1,1,1,1,3,3,2,1,3,1,1,1,0,3,0,0
1771685123932000,1771685123932000,1771685123932000,1771684928340000,47.3977419,8.5455939,0.0072229803,-0.07663571,-0.013946533,0.004007112,-0.0025302004,-487.9847,-0.008572393,-0.016188648,-0.03956805,-0.052374233,-0.00090424286,0.00046052953,-0.0002578646,-0.03930986,0.008647472,-0.02988707,0.0071384106,0.00037617362,-0.005472217,-0.004130732,2.047748e-05,487.9847,0.1000061,0.010000001,-487.9847,0.12089771,0.11334656,0.08073322,0.04941597,inf,inf,inf,inf,inf,160,1,1,1,1,3,3,2,1,3,1,1,1,0,3,0,0
1771685123940000,1771685123940000,1771685123940000,1771684928340000,47.3977419,8.5455939,0.0072575817,-0.07663047,-0.014160156,0.004007112,-0.0025302004,-487.9847,-0.0086212605,-0.016403988,-0.0400014,-0.052676223,-0.00090424286,0.00046052953,-0.0002578646,-0.016824456,-0.039068893,-0.059971116,0.0071713245,0.0003762834,-0.005440039,-0.004130732,2.052177e-05,487.9847,0.1000061,0.010000001,-487.9847,0.12130671,0.11359824,0.08103405,0.0494988,inf,inf,inf,inf,inf,160,1,1,1,1,3,3,2,1,3,1,1,1,0,3,0,0
1771685123948000,1771685123948000,1771685123948000,1771684928340000,47.3977419,8.5455939,0.0072886394,-0.076628745,-0.014404297,0.004007112,-0.0025302004,-487.9847,-0.008707257,-0.01621114,-0.040252525,-0.05279618,-0.00090424286,0.00046052953,-0.0002578646,-0.02114681,0.012296972,-0.037088986,0.007195591,0.00037639335,-0.0054164417,-0.004130732,2.0566098e-05,487.9847,0.1000061,0.010000001,-487.9847,0.121718474,0.11385076,0.08133501,0.049581505,inf,inf,inf,inf,inf,160,1,1,1,1,3,3,2,1,3,1,1,1,0,3,0,0
1771685123956000,1771685123956000,1771685123956000,1771684928340000,47.3977419,8.5455939,0.0073160958,-0.07662783,-0.01461792,0.004007112,-0.0025302004,-487.9847,-0.008691929,-0.015953137,-0.04003519,-0.052447893,-0.00090424286,0.00046052953,-0.0002578646,-0.008167601,0.020772824,0.02157036,0.007214501,0.00037650327,-0.005398181,-0.004130732,2.061046e-05,487.9847,0.1000061,0.010000001,-487.9847,0.122133,0.11410411,0.08163514,0.049664088,inf,inf,inf,inf,inf,160,1,1,1,1,3,3,2,1,3,1,1,1,0,3,0,0
1771685123964000,1771685123964000,1771685123964000,1771684928340000,47.3977419,8.5455939,0.007365356,-0.0766105,-0.014831543,0.004007112,-0.0025302004,-487.9847,-0.008651724,-0.015849777,-0.039645653,-0.051932994,-0.00090424286,0.00046052953,-0.0002578646,-0.006897553,-0.00031529542,0.042466443,0.0072066924,0.00037659006,-0.0054066116,-0.004130732,2.0374293e-05,487.9847,0.1000061,0.010000001,-487.9847,0.119885415,0.1127783,0.07998549,0.049217634,inf,inf,inf,inf,inf,160,1,1,1,1,3,3,2,1,3,1,1,1,0,3,0,0
1771685123972000,1771685123972000,1771685123972000,1771684928340000,47.3977419,8.5455939,0.0074118776,-0.076595664,-0.015075684,0.004007112,-0.0025302004,-487.9847,-0.008477696,-0.015746405,-0.039534952,-0.051697087,-0.00090424286,0.00046052953,-0.0002578646,0.01019303,5.481797e-05,0.0077290456,0.007255549,0.00037670007,-0.0053585195,-0.004130732,2.0418494e-05,487.9847,0.1000061,0.010000001,-487.9847,0.12028754,0.113028005,0.08028555,0.049300775,inf,inf,inf,inf,inf,160,1,1,1,1,3,3,2,1,3,1,1,1,0,3,0,0
1771685123980000,1771685123980000,1771685123980000,1771684928340000,47.3977419,8.5455939,0.0074567897,-0.07658284,-0.015289307,0.004007112,-0.0025302004,-487.9847,-0.008095366,-0.015547191,-0.039434776,-0.051471848,-0.00090424286,0.00046052953,-0.0002578646,0.036582027,0.012391715,0.0065276395,0.007249038,0.00037681012,-0.005365763,-0.004130732,2.0462734e-05,487.9847,0.1000061,0.010000001,-487.9847,0.1206924,0.11327855,0.080585614,0.04938378,inf,inf,inf,inf,inf,160,1,1,1,1,3,3,2,1,3,1,1,1,0,3,0,0
1771685123988000,1771685123988000,1771685123988000,1771684928340000,47.3977419,8.5455939,0.007502625,-0.07657093,-0.01550293,0.004007112,-0.0025302004,-487.9847,-0.0075636194,-0.015155915,-0.039228063,-0.051133238,-0.00090424286,0.00046052953,-0.0002578646,0.055599947,0.036797114,0.019726342,0.007225468,0.00037600187,-0.0053900317,-0.004130732,2.0496194e-05,487.9847,0.1000061,0.010000001,-487.9847,0.12109768,0.113470756,0.08087601,0.049456228,inf,inf,inf,inf,inf,160,1,1,1,1,3,3,2,1,3,1,1,1,0,3,0,0
1771685123996000,1771685123996000,1771685123996000,1771684928340000,47.3977419,8.5455939,0.0075479727,-0.07655907,-0.015716553,0.004007112,-0.0025302004,-487.9847,-0.007249929,-0.014845968,-0.03921848,-0.05099221,-0.00090424286,0.00046052953,-0.0002578646,0.028676357,0.026966533,-0.004800036,0.007172433,0.0003761116,-0.0054441113,-0.004130732,2.0540496e-05,487.9847,0.1000061,0.010000001,-487.9847,0.121507995,0.11372284,0.081176855,0.049538996,inf,inf,inf,inf,inf,160,1,1,1,1,3,3,2,1,3,1,1,1,0,3,0,0
1771685124004000,1771685124004000,1771685124004000,1771684928340000,47.3977419,8.5455939,0.0075918855,-0.07654822,-0.015930176,0.004007112,-0.0025302004,-487.9847,-0.0071954518,-0.014625357,-0.039540034,-0.051182743,-0.00090424286,0.00046052953,-0.0002578646,-0.0034102187,0.016122969,-0.046079975,0.0072055673,0.00037622158,-0.0054119905,-0.004130732,2.0584845e-05,487.9847,0.1000061,0.010000001,-487.9847,0.121921085,0.11397576,0.0814774,0.04962164,inf,inf,inf,inf,inf,160,1,1,1,1,3,3,2,1,3,1,1,1,0,3,0,0
1771685124012000,1771685124012000,1771685124012000,1771684928340000,47.3977419,8.5455939,0.007645361,-0.07651999,-0.016143799,0.004007112,-0.0025302004,-487.9847,-0.0074758474,-0.014395876,-0.039548878,-0.05106231,-0.00090424286,0.00046052953,-0.0002578646,-0.046516802,0.015363904,-0.0077141444,0.0072558247,0.00037630805,-0.005362713,-0.004130732,2.035085e-05,487.9847,0.1000061,0.010000001,-487.9847,0.11968853,0.11265509,0.07984017,0.049177084,inf,inf,inf,inf,inf,160,1,1,1,1,3,3,2,1,3,1,1,1,0,3,0,0
1771685124020000,1771685124020000,1771685124020000,1771684928340000,47.3977419,8.5455939,0.0076945266,-0.07649184,-0.016357422,0.004007112,-0.0025302004,-487.9847,-0.007306925,-0.013943961,-0.039788663,-0.05117329,-0.00090424286,0.00046052953,-0.0002578646,0.009999712,0.043537326,-0.03645196,0.007198445,0.00037641788,-0.005421243,-0.004130732,2.0395033e-05,487.9847,0.1000061,0.010000001,-487.9847,0.12008933,0.112904385,0.08013867,0.04926028,inf,inf,inf,inf,inf,160,1,1,1,1,3,3,2,1,3,1,1,1,0,3,0,0
1771685124028000,1771685124028000,1771685124028000,1771684928340000,47.3977419,8.5455939,0.0077432306,-0.07646558,-0.016571045,0.004007112,-0.0025302004,-487.9847,-0.0068291845,-0.014019285,-0.039882638,-0.051138982,-0.00090424286,0.00046052953,-0.0002578646,0.04893768,-0.022002134,-0.018098855,0.0071866717,0.00037652775,-0.0054341494,-0.004130732,2.0439253e-05,487.9847,0.1000061,0.010000001,-487.9847,0.12049285,0.11315452,0.08043825,0.049343355,inf,inf,inf,inf,inf,160,1,1,1,1,3,3,2,1,3,1,1,1,0,3,0,0
1771685124036000,1771685124036000,1771685124036000,1771684928340000,47.3977419,8.5455939,0.0077912807,-0.07644274,-0.01675415,0.004007112,-0.0025302004,-487.9847,-0.0067751785,-0.014048544,-0.04033933,-0.051461894,-0.00090424286,0.00046052953,-0.0002578646,-0.0037016615,-0.015892677,-0.063511536,0.0071687577,0.00037663776,-0.005453182,-0.004130732,2.0483516e-05,487.9847,0.1000061,0.010000001,-487.9847,0.12089913,0.11334651,0.08073897,0.04941591,inf,inf,inf,inf,inf,160,1,1,1,1,3,3,2,1,3,1,1,1,0,3,0,0
1771685124044000,1771685124044000,1771685124044000,1771684928340000,47.3977419,8.5455939,0.007834849,-0.07642367,-0.016967773,0.004007112,-0.0025302004,-487.9847,-0.006963579,-0.014098624,-0.04050468,-0.051494192,-0.00090424286,0.00046052953,-0.0002578646,-0.0336818,-0.018150723,-0.026969237,0.007199965,0.00037674783,-0.005423077,-0.004130732,2.0527816e-05,487.9847,0.1000061,0.010000001,-487.9847,0.12130816,0.11359819,0.08103912,0.049498737,inf,inf,inf,inf,inf,160,1,1,1,1,3,3,2,1,3,1,1,1,0,3,0,0
1771685124052000,1771685124052000,1771685124052000,1771684928340000,47.3977419,8.5455939,0.007876384,-0.076407,-0.017181396,0.004007112,-0.0025302004,-487.9847,-0.006519668,-0.013997505,-0.040288303,-0.051145468,-0.00090424286,0.00046052953,-0.0002578646,0.045666017,0.0010830772,0.020868609,0.0072077466,0.00037685776,-0.005416383,-0.004130732,2.057214e-05,487.9847,0.1000061,0.010000001,-487.9847,0.12171996,0.113850705,0.081340134,0.049581442,inf,inf,inf,inf,inf,160,1,1,1,1,3,3,2,1,3,1,1,1,0,3,0,0
1771685124060000,1771685124060000,1771685124060000,1771684928340000,47.3977419,8.5455939,0.007917122,-0.07639354,-0.01739502,0.004007112,-0.0025302004,-487.9847,-0.00619056,-0.013925197,-0.040178165,-0.050903637,-0.00090424286,0.00046052953,-0.0002578646,0.031830974,-0.0020065298,0.0077071595,0.0072284285,0.0003760494,-0.005396773,-0.004130732,2.0605563e-05,487.9847,0.1000061,0.010000001,-487.9847,0.12213203,0.114104055,0.08163214,0.049664024,inf,inf,inf,inf,inf,160,1,1,1,1,3,3,2,1,3,1,1,1,0,3,0,0
1771685124068000,1771685124068000,1771685124068000,1771684928340000,47.3977419,8.5455939,0.007980862,-0.07636423,-0.017608643,0.004007112,-0.0025302004,-487.9847,-0.0056395666,-0.013841528,-0.040070556,-0.050661243,-0.00090424286,0.00046052953,-0.0002578646,0.057967134,-0.002368094,0.0064698975,0.0071960944,0.00037613505,-0.0054314923,-0.004130732,2.036953e-05,487.9847,0.1000061,0.010000001,-487.9847,0.11988454,0.112778254,0.07998334,0.049217574,inf,inf,inf,inf,inf,160,1,1,1,1,3,3,2,1,3,1,1,1,0,3,0,0
1771685124076000,1771685124076000,1771685124076000,1771684928340000,47.3977419,8.5455939,0.008045748,-0.076337315,-0.017822266,0.004007112,-0.0025302004,-487.9847,-0.0050522573,-0.01375471,-0.040059898,-0.050516617,-0.00090424286,0.00046052953,-0.0002578646,0.062839635,-0.0016136572,-0.0055064443,0.007122257,0.00037624483,-0.0055078794,-0.004130732,2.041373e-05,487.9847,0.1000061,0.010000001,-487.9847,0.12028665,0.11302796,0.08028284,0.04930071,inf,inf,inf,inf,inf,160,1,1,1,1,3,3,2,1,3,1,1,1,0,3,0,0
1771685124084000,1771685124084000,1771685124084000,1771684928340000,47.3977419,8.5455939,0.008111001,-0.076313995,-0.018005371,0.004007112,-0.0025302004,-487.9847,-0.0047534085,-0.013941671,-0.03994045,-0.050264,-0.00090424286,0.00046052953,-0.0002578646,0.027106805,-0.035483744,0.008230562,0.0070863506,0.00037635487,-0.0055463198,-0.004130732,2.0457974e-05,487.9847,0.1000061,0.010000001,-487.9847,0.1206915,0.1132785,0.08058296,0.04938372,inf,inf,inf,inf,inf,160,1,1,1,1,3,3,2,1,3,1,1,1,0,3,0,0
1771685124092000,1771685124092000,1771685124092000,1771684928340000,47.3977419,8.5455939,0.008173698,-0.07629489,-0.018218994,0.004007112,-0.0025302004,-487.9847,-0.0046822773,-0.013785416,-0.03987293,-0.05006201,-0.00090424286,0.00046052953,-0.0002578646,-0.0009136747,0.00793659,0.0017867422,0.007101891,0.00037630624,-0.0055333027,-0.004130732,2.0500136e-05,487.9847,0.1000061,0.010000001,-487.9847,0.12109871,0.11347071,0.080882356,0.04945616,inf,inf,inf,inf,inf,160,1,1,1,1,3,3,2,1,3,1,1,1,0,3,0,0
1771685124100000,1771685124100000,1771685124100000,1771684928340000,47.3977419,8.5455939,0.008234452,-0.076277666,-0.018432617,0.004007112,-0.0025302004,-487.9847,-0.0043876115,-0.013791311,-0.03982629,-0.049882576,-0.00090424286,0.00046052953,-0.0002578646,0.027334351,-0.012009314,-0.0006896443,0.0070993393,0.00037641605,-0.0055384077,-0.004130732,2.0544438e-05,487.9847,0.1000061,0.010000001,-487.9847,0.12150906,0.1137228,0.08118326,0.04953893,inf,inf,inf,inf,inf,160,1,1,1,1,3,3,2,1,3,1,1,1,0,3,0,0
1771685124108000,1771685124108000,1771685124108000,1771684928340000,47.3977419,8.5455939,0.008293621,-0.07626368,-0.018615723,0.004007112,-0.0025302004,-487.9847,-0.004403391,-0.013768285,-0.039698843,-0.04962398,-0.00090424286,0.00046052953,-0.0002578646,-0.011172687,-0.008079998,0.009541399,0.007145712,0.0003765259,-0.0054945806,-0.004130732,2.0588777e-05,487.9847,0.1000061,0.010000001,-487.9847,0.12192218,0.113975726,0.08148328,0.04962157,inf,inf,inf,inf,inf,160,1,1,1,1,3,3,2,1,3,1,1,1,0,3,0,0
1771685124116000,1771685124116000,1771685124116000,1771684928340000,47.3977419,8.5455939,0.008381655,-0.07624903,-0.018829346,0.004007112,-0.0025302004,-487.9847,-0.0044368664,-0.013815682,-0.039904695,-0.049698643,-0.00090424286,0.00046052953,-0.0002578646,-0.015523853,-0.01784638,-0.032977197,0.007120655,0.0003766125,-0.0055221803,-0.004130732,2.0354659e-05,487.9847,0.1000061,0.010000001,-487.9847,0.11968951,0.11265505,0.07984482,0.049177017,inf,inf,inf,inf,inf,160,1,1,1,1,3,3,2,1,3,1,1,1,0,3,0,0
1771685124124000,1771685124124000,1771685124124000,1771684928340000,47.3977419,8.5455939,0.008467884,-0.07623539,-0.019012451,0.004007112,-0.0025302004,-487.9847,-0.004077292,-0.013234156,-0.039531156,-0.04919477,-0.00090424286,0.00046052953,-0.0002578646,0.033790614,0.061119597,0.039598435,0.007010511,0.0003758048,-0.0056349747,-0.004130732,2.038815e-05,487.9847,0.1000061,0.010000001,-487.9847,0.12008811,0.11290435,0.08013495,0.049260214,inf,inf,inf,inf,inf,160,1,1,1,1,3,3,2,1,3,1,1,1,0,3,0,0
1771685124132000,1771685124132000,1771685124132000,1771684928340000,47.3977419,8.5455939,0.008553891,-0.07622069,-0.019226074,0.004007112,-0.0025302004,-487.9847,-0.003704765,-0.013037813,-0.03926995,-0.04880411,-0.00090424286,0.00046052953,-0.0002578646,0.0357502,0.013293481,0.025704036,0.006963589,0.00037591445,-0.0056847134,-0.004130732,2.0432359e-05,487.9847,0.1000061,0.010000001,-487.9847,0.12049161,0.113154486,0.080434464,0.049343284,inf,inf,inf,inf,inf,160,1,1,1,1,3,3,2,1,3,1,1,1,0,3,0,0
1771685124140000,1771685124140000,1771685124140000,1771684928340000,47.3977419,8.5455939,0.008638295,-0.076209575,-0.01940918,0.004007112,-0.0025302004,-487.9847,-0.0035136566,-0.013353989,-0.03924947,-0.04865108,-0.00090424286,0.00046052953,-0.0002578646,0.01340379,-0.050452687,-0.0043748873,0.0069774776,0.0003760241,-0.0056736334,-0.004130732,2.0476604e-05,487.9847,0.1000061,0.010000001,-487.9847,0.12089786,0.11334647,0.08073407,0.049415838,inf,inf,inf,inf,inf,160,1,1,1,1,3,3,2,1,3,1,1,1,0,3,0,0
1771685124148000,1771685124148000,1771685124148000,1771684928340000,47.3977419,8.5455939,0.008720267,-0.07620141,-0.019592285,0.004007112,-0.0025302004,-487.9847,-0.003465773,-0.013034182,-0.039515547,-0.048785698,-0.00090424286,0.00046052953,-0.0002578646,-0.004177895,0.02935657,-0.04005199,0.0070796376,0.0003761339,-0.0055742757,-0.004130732,2.052089e-05,487.9847,0.1000061,0.010000001,-487.9847,0.12130687,0.11359815,0.081034355,0.049498666,inf,inf,inf,inf,inf,160,1,1,1,1,3,3,2,1,3,1,1,1,0,3,0,0
1771685124156000,1771685124156000,1771685124156000,1771684928340000,47.3977419,8.5455939,0.008798472,-0.07619331,-0.019805908,0.004007112,-0.0025302004,-487.9847,-0.0034994453,-0.012938729,-0.039448075,-0.04858779,-0.00090424286,0.00046052953,-0.0002578646,-0.0140569,0.0016098219,0.00178162,0.0071433615,0.00037624346,-0.0055133384,-0.004130732,2.0565203e-05,487.9847,0.1000061,0.010000001,-487.9847,0.12171863,0.11385066,0.08133565,0.04958137,inf,inf,inf,inf,inf,160,1,1,1,1,3,3,2,1,3,1,1,1,0,3,0,0
1771685124164000,1771685124164000,1771685124164000,1771684928340000,47.3977419,8.5455939,0.008874166,-0.076188914,-0.019989014,0.004007112,-0.0025302004,-487.9847,-0.0033318796,-0.013097657,-0.039526258,-0.048537496,-0.00090424286,0.00046052953,-0.0002578646,0.011401187,-0.029890373,-0.016289761,0.0071570207,0.0003763533,-0.005502449,-0.004130732,2.0609566e-05,487.9847,0.1000061,0.010000001,-487.9847,0.12213317,0.11410401,0.08163625,0.04966395,inf,inf,inf,inf,inf,160,1,1,1,1,3,3,2,1,3,1,1,1,0,3,0,0
1771685124172000,1771685124172000,1771685124172000,1771684928340000,47.3977419,8.5455939,0.008965995,-0.076184675,-0.02017212,0.004007112,-0.0025302004,-487.9847,-0.0036725493,-0.013010006,-0.039270557,-0.048152465,-0.00090424286,0.00046052953,-0.0002578646,-0.05349502,0.00013678345,0.024567822,0.007095089,0.000376439,-0.005567138,-0.004130732,2.0373407e-05,487.9847,0.1000061,0.010000001,-487.9847,0.11988554,0.11277821,0.07998762,0.0492175,inf,inf,inf,inf,inf,160,1,1,1,1,3,3,2,1,3,1,1,1,0,3,0,0
1771685124180000,1771685124180000,1771685124180000,1771684928340000,47.3977419,8.5455939,0.009053742,-0.07618163,-0.020385742,0.004007112,-0.0025302004,-487.9847,-0.0034258335,-0.012828013,-0.039208047,-0.047962565,-0.00090424286,0.00046052953,-0.0002578646,0.020272927,0.012238855,0.0005764886,0.007089733,0.0003765488,-0.0055753295,-0.004130732,2.04176e-05,487.9847,0.1000061,0.010000001,-487.9847,0.12028767,0.113027915,0.080287606,0.04930064,inf,inf,inf,inf,inf,160,1,1,1,1,3,3,2,1,3,1,1,1,0,3,0,0
1771685124188000,1771685124188000,1771685124188000,1771684928340000,47.3977419,8.5455939,0.009139623,-0.07617869,-0.020568848,0.004007112,-0.0025302004,-487.9847,-0.0032303454,-0.012369475,-0.039471522,-0.04810048,-0.00090424286,0.00046052953,-0.0002578646,0.014196277,0.047102027,-0.04001846,0.007090375,0.00037665863,-0.005577505,-0.004130732,2.0461834e-05,487.9847,0.1000061,0.010000001,-487.9847,0.12069255,0.113278456,0.0805886,0.049383648,inf,inf,inf,inf,inf,160,1,1,1,1,3,3,2,1,3,1,1,1,0,3,0,0
1771685124196000,1771685124196000,1771685124196000,1771684928340000,47.3977419,8.5455939,0.009222226,-0.0761751,-0.020751953,0.004007112,-0.0025302004,-487.9847,-0.0031142938,-0.012064579,-0.039462477,-0.047963567,-0.00090424286,0.00046052953,-0.0002578646,0.004842176,0.028283352,-0.005942303,0.0070581334,0.00037585074,-0.005612547,-0.004130732,2.0495285e-05,487.9847,0.1000061,0.010000001,-487.9847,0.12109784,0.113470666,0.08087974,0.04945609,inf,inf,inf,inf,inf,160,1,1,1,1,3,3,2,1,3,1,1,1,0,3,0,0
1771685124204000,1771685124204000,1771685124204000,1771684928340000,47.3977419,8.5455939,0.009301775,-0.07617309,-0.020965576,0.004007112,-0.0025302004,-487.9847,-0.0029834164,-0.012117244,-0.039264087,-0.04763914,-0.00090424286,0.00046052953,-0.0002578646,0.006994223,-0.016129015,0.017874407,0.0070277303,0.00037596037,-0.0056463117,-0.004130732,2.0539585e-05,487.9847,0.1000061,0.010000001,-487.9847,0.12150817,0.11372275,0.08117969,0.049538862,inf,inf,inf,inf,inf,160,1,1,1,1,3,3,2,1,3,1,1,1,0,3,0,0
1771685124212000,1771685124212000,1771685124212000,1771684928340000,47.3977419,8.5455939,0.009379403,-0.0761738,-0.021148682,0.004007112,-0.0025302004,-487.9847,-0.0029297646,-0.012193067,-0.038702898,-0.046953745,-0.00090424286,0.00046052953,-0.0002578646,-0.0023724732,-0.018750507,0.06336904,0.006995207,0.00037606998,-0.0056821806,-0.004130732,2.0583922e-05,487.9847,0.1000061,0.010000001,-487.9847,0.12192127,0.113975674,0.08148014,0.049621504,inf,inf,inf,inf,inf,160,1,1,1,1,3,3,2,1,3,1,1,1,0,3,0,0
1771685124220000,1771685124220000,1771685124220000,1771684928340000,47.3977419,8.5455939,0.009463124,-0.07616614,-0.021331787,0.004007112,-0.0025302004,-487.9847,-0.0025001196,-0.011929966,-0.038496178,-0.046614874,-0.00090424286,0.00046052953,-0.0002578646,0.04401692,0.022391932,0.017941462,0.007027558,0.000376155,-0.0056531606,-0.004130732,2.0349946e-05,487.9847,0.1000061,0.010000001,-487.9847,0.11968868,0.11265501,0.07984281,0.049176954,inf,inf,inf,inf,inf,160,1,1,1,1,3,3,2,1,3,1,1,1,0,3,0,0
1771685124228000,1771685124228000,1771685124228000,1771684928340000,47.3977419,8.5455939,0.009545401,-0.07615956,-0.021514893,0.004007112,-0.0025302004,-487.9847,-0.0026353286,-0.011879918,-0.03838655,-0.046375293,-0.00090424286,0.00046052953,-0.0002578646,-0.0262905,-0.0039410656,0.005978625,0.0070143174,0.00037626468,-0.005669808,-0.004130732,2.0394124e-05,487.9847,0.1000061,0.010000001,-487.9847,0.12008948,0.1129043,0.08014246,0.049260154,inf,inf,inf,inf,inf,160,1,1,1,1,3,3,2,1,3,1,1,1,0,3,0,0
1771685124236000,1771685124236000,1771685124236000,1771684928340000,47.3977419,8.5455939,0.009623287,-0.07615404,-0.02166748,0.004007112,-0.0025302004,-487.9847,-0.0025965273,-0.011581971,-0.038253866,-0.046114825,-0.00090424286,0.00046052953,-0.0002578646,-0.004235035,0.027337702,0.009029171,0.0069733215,0.00037637464,-0.0057141543,-0.004130732,2.0438347e-05,487.9847,0.1000061,0.010000001,-487.9847,0.12049303,0.11315444,0.08044195,0.04934323,inf,inf,inf,inf,inf,160,1,1,1,1,3,3,2,1,3,1,1,1,0,3,0,0
1771685124244000,1771685124244000,1771685124244000,1771684928340000,47.3977419,8.5455939,0.009699074,-0.07614838,-0.021850586,0.004007112,-0.0025302004,-487.9847,-0.0024196922,-0.011332558,-0.038184114,-0.0459164,-0.00090424286,0.00046052953,-0.0002578646,0.013304986,0.02155462,0.0012107192,0.006992962,0.0003764843,-0.0056978124,-0.004130732,2.0482592e-05,487.9847,0.1000061,0.010000001,-487.9847,0.12089932,0.11334643,0.08074175,0.04941578,inf,inf,inf,inf,inf,160,1,1,1,1,3,3,2,1,3,1,1,1,0,3,0,0
1771685124252000,1771685124252000,1771685124252000,1771684928340000,47.3977419,8.5455939,0.009773749,-0.07614394,-0.022033691,0.004007112,-0.0025302004,-487.9847,-0.002092319,-0.011313631,-0.038403768,-0.046009596,-0.00090424286,0.00046052953,-0.0002578646,0.03240056,-0.006977053,-0.034802124,0.006979485,0.00037659417,-0.0057145315,-0.004130732,2.0526883e-05,487.9847,0.1000061,0.010000001,-487.9847,0.121308364,0.11359811,0.08104199,0.04949861,inf,inf,inf,inf,inf,160,1,1,1,1,3,3,2,1,3,1,1,1,0,3,0,0
1771685124260000,1771685124260000,1771685124260000,1771684928340000,47.3977419,8.5455939,0.0098467795,-0.07614239,-0.022216797,0.004007112,-0.0025302004,-487.9847,-0.0022345108,-0.011373255,-0.03820771,-0.04568926,-0.00090424286,0.00046052953,-0.0002578646,-0.026109789,-0.01642587,0.017320735,0.006999068,0.0003757868,-0.0056981356,-0.004130732,2.0560314e-05,487.9847,0.1000061,0.010000001,-487.9847,0.12171774,0.113850616,0.08133276,0.049581315,inf,inf,inf,inf,inf,160,1,1,1,1,3,3,2,1,3,1,1,1,0,3,0,0
1771685124268000,1771685124268000,1771685124268000,1771684928340000,47.3977419,8.5455939,0.009915508,-0.07614361,-0.022399902,0.004007112,-0.0025302004,-487.9847,-0.002284223,-0.011468622,-0.038175907,-0.045535296,-0.00090424286,0.00046052953,-0.0002578646,-0.014280598,-0.02063103,-0.0030570661,0.0070426906,0.0003758964,-0.0056584356,-0.004130732,2.0604668e-05,487.9847,0.1000061,0.010000001,-487.9847,0.122132264,0.114103965,0.08163398,0.049663894,inf,inf,inf,inf,inf,160,1,1,1,1,3,3,2,1,3,1,1,1,0,3,0,0
1771685124276000,1771685124276000,1771685124276000,1771684928340000,47.3977419,8.5455939,0.009988794,-0.07612377,-0.02255249,0.004007112,-0.0025302004,-487.9847,-0.002138444,-0.011510155,-0.038300037,-0.04553563,-0.00090424286,0.00046052953,-0.0002578646,0.009707698,-0.015839761,-0.023424624,0.007075536,0.00037598057,-0.005629457,-0.004130732,2.0368683e-05,487.9847,0.1000061,0.010000001,-487.9847,0.11988474,0.11277817,0.079984054,0.049217448,inf,inf,inf,inf,inf,160,1,1,1,1,3,3,2,1,3,1,1,1,0,3,0,0
1771685124284000,1771685124284000,1771685124284000,1771684928340000,47.3977419,8.5455939,0.010060335,-0.076106355,-0.022735596,0.004007112,-0.0025302004,-487.9847,-0.001896719,-0.011424881,-0.038008757,-0.04512188,-0.00090424286,0.00046052953,-0.0002578646,0.021968115,0.00032173828,0.028677283,0.0070245126,0.0003760902,-0.0056844708,-0.004130732,2.0412877e-05,487.9847,0.1000061,0.010000001,-487.9847,0.12028685,0.11302787,0.08028306,0.049300585,inf,inf,inf,inf,inf,160,1,1,1,1,3,3,2,1,3,1,1,1,0,3,0,0
1771685124292000,1771685124292000,1771685124292000,1771684928340000,47.3977419,8.5455939,0.010129116,-0.076091036,-0.022918701,0.004007112,-0.0025302004,-487.9847,-0.0019610804,-0.011343854,-0.03795789,-0.044949878,-0.00090424286,0.00046052953,-0.0002578646,-0.01585363,0.00015473778,-0.0012042,0.007023336,0.00037604215,-0.0056895777,-0.004130732,2.045502e-05,487.9847,0.1000061,0.010000001,-487.9847,0.12069132,0.11327842,0.08058116,0.04938359,inf,inf,inf,inf,inf,160,1,1,1,1,3,3,2,1,3,1,1,1,0,3,0,0
1771685124300000,1771685124300000,1771685124300000,1771684928340000,47.3977419,8.5455939,0.010194172,-0.07607872,-0.023071289,0.004007112,-0.0025302004,-487.9847,-0.0020376754,-0.011551941,-0.037735935,-0.044605058,-0.00090424286,0.00046052953,-0.0002578646,-0.01713229,-0.03569691,0.020252539,0.0070080147,0.00037615173,-0.0057095704,-0.004130732,2.049928e-05,487.9847,0.1000061,0.010000001,-487.9847,0.12109892,0.11347062,0.08088189,0.049456034,inf,inf,inf,inf,inf,160,1,1,1,1,3,3,2,1,3,1,1,1,0,3,0,0
1771685124308000,1771685124308000,1771685124308000,1771684928340000,47.3977419,8.5455939,0.010256059,-0.07606887,-0.023254395,0.004007112,-0.0025302004,-487.9847,-0.0020873817,-0.011256955,-0.037815657,-0.044564232,-0.00090424286,0.00046052953,-0.0002578646,-0.013525342,0.027467,-0.017292796,0.006959669,0.0003762614,-0.0057625244,-0.004130732,2.0543575e-05,487.9847,0.1000061,0.010000001,-487.9847,0.12150928,0.11372271,0.08118201,0.0495388,inf,inf,inf,inf,inf,160,1,1,1,1,3,3,2,1,3,1,1,1,0,3,0,0
1771685124316000,1771685124316000,1771685124316000,1771684928340000,47.3977419,8.5455939,0.010314939,-0.07605933,-0.0234375,0.004007112,-0.0025302004,-487.9847,-0.002058009,-0.011153847,-0.03753814,-0.044168428,-0.00090424286,0.00046052953,-0.0002578646,-0.0034018839,0.003754384,0.027521512,0.006921964,0.00037637106,-0.005804775,-0.004130732,2.0587911e-05,487.9847,0.1000061,0.010000001,-487.9847,0.121922396,0.11397563,0.081482895,0.049621444,inf,inf,inf,inf,inf,160,1,1,1,1,3,3,2,1,3,1,1,1,0,3,0,0
1771685124324000,1771685124324000,1771685124324000,1771684928340000,47.3977419,8.5455939,0.010369257,-0.07602836,-0.023620605,0.004007112,-0.0025302004,-487.9847,-0.0016308997,-0.011038339,-0.037655044,-0.044178564,-0.00090424286,0.00046052953,-0.0002578646,0.046383698,0.0034347728,-0.022224149,0.0069021233,0.000376456,-0.0058291033,-0.004130732,2.0353858e-05,487.9847,0.1000061,0.010000001,-487.9847,0.1196897,0.11265496,0.0798446,0.049176887,inf,inf,inf,inf,inf,160,1,1,1,1,3,3,2,1,3,1,1,1,0,3,0,0
1771685124332000,1771685124332000,1771685124332000,1771684928340000,47.3977419,8.5455939,0.01042365,-0.07599724,-0.023803711,0.004007112,-0.0025302004,-487.9847,-0.0013811135,-0.010947921,-0.03776356,-0.044181243,-0.00090424286,0.00046052953,-0.0002578646,0.024570799,0.00013562111,-0.02100691,0.00688138,0.0003756485,-0.005854446,-0.004130732,2.0387337e-05,487.9847,0.1000061,0.010000001,-487.9847,0.12008831,0.11290425,0.08013495,0.049260087,inf,inf,inf,inf,inf,160,1,1,1,1,3,3,2,1,3,1,1,1,0,3,0,0
1771685124340000,1771685124340000,1771685124340000,1771684928340000,47.3977419,8.5455939,0.010477197,-0.07596774,-0.023986816,0.004007112,-0.0025302004,-487.9847,-0.0010809893,-0.010717676,-0.037954465,-0.044268176,-0.00090424286,0.00046052953,-0.0002578646,0.0310925,0.017931484,-0.031142028,0.0068840925,0.00037575793,-0.0058520692,-0.004130732,2.043154e-05,487.9847,0.1000061,0.010000001,-487.9847,0.12049182,0.11315439,0.08043533,0.049343154,inf,inf,inf,inf,inf,160,1,1,1,1,3,3,2,1,3,1,1,1,0,3,0,0
1771685124348000,1771685124348000,1771685124348000,1771684928340000,47.3977419,8.5455939,0.010529826,-0.075938486,-0.024169922,0.004007112,-0.0025302004,-487.9847,-0.0011960628,-0.010413738,-0.038029898,-0.04423741,-0.00090424286,0.00046052953,-0.0002578646,-0.020588141,0.027451113,-0.01668371,0.0069400487,0.00037586762,-0.0057963845,-0.004130732,2.0475789e-05,487.9847,0.1000061,0.010000001,-487.9847,0.120898075,0.11334638,0.08073525,0.049415704,inf,inf,inf,inf,inf,160,1,1,1,1,3,3,2,1,3,1,1,1,0,3,0,0
1771685124356000,1771685124356000,1771685124356000,1771684928340000,47.3977419,8.5455939,0.010578551,-0.07591114,-0.024353027,0.004007112,-0.0025302004,-487.9847,-0.0013097567,-0.010426048,-0.03811709,-0.04422031,-0.00090424286,0.00046052953,-0.0002578646,-0.020208295,-0.011779173,-0.017994547,0.006944711,0.0003759772,-0.0057919347,-0.004130732,2.0520067e-05,487.9847,0.1000061,0.010000001,-487.9847,0.12130708,0.113598056,0.081034966,0.049498536,inf,inf,inf,inf,inf,160,1,1,1,1,3,3,2,1,3,1,1,1,0,3,0,0
1771685124364000,1771685124364000,1771685124364000,1771684928340000,47.3977419,8.5455939,0.01062432,-0.0758866,-0.024536133,0.004007112,-0.0025302004,-487.9847,-0.001384693,-0.010469699,-0.038138624,-0.04413854,-0.00090424286,0.00046052953,-0.0002578646,-0.015162377,-0.015406065,-0.009633134,0.006889643,0.0003760868,-0.0058471328,-0.004130732,2.0564383e-05,487.9847,0.1000061,0.010000001,-487.9847,0.12171885,0.11385057,0.08133398,0.04958124,inf,inf,inf,inf,inf,160,1,1,1,1,3,3,2,1,3,1,1,1,0,3,0,0
1771685124372000,1771685124372000,1771685124372000,1771684928340000,47.3977419,8.5455939,0.010666919,-0.075863704,-0.024719238,0.004007112,-0.0025302004,-487.9847,-0.0015524938,-0.010180865,-0.038289543,-0.044187214,-0.00090424286,0.00046052953,-0.0002578646,-0.026571993,0.026434371,-0.025655607,0.0068602804,0.0003761964,-0.0058765495,-0.004130732,2.0608735e-05,487.9847,0.1000061,0.010000001,-487.9847,0.12213339,0.11410392,0.08163442,0.049663823,inf,inf,inf,inf,inf,160,1,1,1,1,3,3,2,1,3,1,1,1,0,3,0,0
1771685124380000,1771685124380000,1771685124380000,1771684928340000,47.3977419,8.5455939,0.010703039,-0.07581329,-0.024932861,0.004007112,-0.0025302004,-487.9847,-0.0015298397,-0.010190575,-0.0383088,-0.044114612,-0.00090424286,0.00046052953,-0.0002578646,-0.0026790637,-0.01292101,-0.009643379,0.0068352353,0.0003762806,-0.0059015746,-0.004130732,2.0372685e-05,487.9847,0.1000061,0.010000001,-487.9847,0.11988577,0.11277812,0.07998489,0.049217373,inf,inf,inf,inf,inf,160,1,1,1,1,3,3,2,1,3,1,1,1,0,3,0,0
1771685124388000,1771685124388000,1771685124388000,1771684928340000,47.3977419,8.5455939,0.010736894,-0.07576552,-0.025115967,0.004007112,-0.0025302004,-487.9847,-0.0014965143,-0.00989615,-0.03825662,-0.043971363,-0.00090424286,0.00046052953,-0.0002578646,-0.0011584833,0.025426928,-0.00055460253,0.006778187,0.00037639032,-0.0059587085,-0.004130732,2.0416877e-05,487.9847,0.1000061,0.010000001,-487.9847,0.1202879,0.113027826,0.0802841,0.04930051,inf,inf,inf,inf,inf,160,1,1,1,1,3,3,2,1,3,1,1,1,0,3,0,0
1771685124396000,1771685124396000,1771685124396000,1771684928340000,47.3977419,8.5455939,0.010769618,-0.075718075,-0.02532959,0.004007112,-0.0025302004,-487.9847,-0.0014350173,-0.009630212,-0.03869899,-0.044323467,-0.00090424286,0.00046052953,-0.0002578646,0.002551881,0.0221898,-0.062218864,0.0067218775,0.00037558345,-0.0060150274,-0.004130732,2.0450338e-05,487.9847,0.1000061,0.010000001,-487.9847,0.12069048,0.11327837,0.08057468,0.049383517,inf,inf,inf,inf,inf,160,1,1,1,1,3,3,2,1,3,1,1,1,0,3,0,0
1771685124404000,1771685124404000,1771685124404000,1771684928340000,47.3977419,8.5455939,0.01080029,-0.07567212,-0.025512695,0.004007112,-0.0025302004,-487.9847,-0.0014208012,-0.009420072,-0.0390077,-0.044539656,-0.00090424286,0.00046052953,-0.0002578646,-0.003179429,0.015528444,-0.045469493,0.0067228028,0.0003756929,-0.006013982,-0.004130732,2.0494594e-05,487.9847,0.1000061,0.010000001,-487.9847,0.12109805,0.11347057,0.08087542,0.04945596,inf,inf,inf,inf,inf,160,1,1,1,1,3,3,2,1,3,1,1,1,0,3,0,0
1771685124412000,1771685124412000,1771685124412000,1771684928340000,47.3977419,8.5455939,0.010829913,-0.07562599,-0.025726318,0.004007112,-0.0025302004,-487.9847,-0.0012744373,-0.008920565,-0.039216384,-0.04465668,-0.00090424286,0.00046052953,-0.0002578646,0.013510426,0.052005775,-0.03281608,0.0067109508,0.00037580234,-0.0060256366,-0.004130732,2.0538886e-05,487.9847,0.1000061,0.010000001,-487.9847,0.121508375,0.11372266,0.08117511,0.049538728,inf,inf,inf,inf,inf,160,1,1,1,1,3,3,2,1,3,1,1,1,0,3,0,0
1771685124420000,1771685124420000,1771685124420000,1771684928340000,47.3977419,8.5455939,0.0108583355,-0.075580694,-0.025909424,0.004007112,-0.0025302004,-487.9847,-0.0012100473,-0.008944506,-0.03919775,-0.04454726,-0.00090424286,0.00046052953,-0.0002578646,0.0034345782,-0.013129835,-0.0042561437,0.006678956,0.00037591183,-0.0060573635,-0.004130732,2.0583218e-05,487.9847,0.1000061,0.010000001,-487.9847,0.12192146,0.11397558,0.08147556,0.04962137,inf,inf,inf,inf,inf,160,1,1,1,1,3,3,2,1,3,1,1,1,0,3,0,0
1771685124428000,1771685124428000,1771685124428000,1771684928340000,47.3977419,8.5455939,0.010881933,-0.07551868,-0.026123047,0.004007112,-0.0025302004,-487.9847,-0.0011331212,-0.009107524,-0.039294306,-0.044557184,-0.00090424286,0.00046052953,-0.0002578646,0.00507154,-0.032070365,-0.019276047,0.006674658,0.000375996,-0.0060613006,-0.004130732,2.034937e-05,487.9847,0.1000061,0.010000001,-487.9847,0.11968889,0.11265492,0.07983885,0.04917682,inf,inf,inf,inf,inf,160,1,1,1,1,3,3,2,1,3,1,1,1,0,3,0,0
1771685124436000,1771685124436000,1771685124436000,1771684928340000,47.3977419,8.5455939,0.010904267,-0.07546041,-0.02633667,0.004007112,-0.0025302004,-487.9847,-0.0010533044,-0.009023926,-0.038706705,-0.04388372,-0.00090424286,0.00046052953,-0.0002578646,0.0055943164,-0.0009107789,0.06640329,0.006663113,0.0003761056,-0.006072545,-0.004130732,2.0393543e-05,487.9847,0.1000061,0.010000001,-487.9847,0.12008968,0.11290421,0.08013761,0.04926002,inf,inf,inf,inf,inf,160,1,1,1,1,3,3,2,1,3,1,1,1,0,3,0,0
1771685124444000,1771685124444000,1771685124444000,1771684928340000,47.3977419,8.5455939,0.010925019,-0.075403795,-0.026519775,0.004007112,-0.0025302004,-487.9847,-0.0011682706,-0.008833334,-0.038569886,-0.04366183,-0.00090424286,0.00046052953,-0.0002578646,-0.018591689,0.012788988,0.01021102,0.0067097773,0.00037621526,-0.0060254866,-0.004130732,2.0437754e-05,487.9847,0.1000061,0.010000001,-487.9847,0.12049322,0.113154344,0.0804371,0.049343087,inf,inf,inf,inf,inf,160,1,1,1,1,3,3,2,1,3,1,1,1,0,3,0,0
1771685124452000,1771685124452000,1771685124452000,1771684928340000,47.3977419,8.5455939,0.010944438,-0.0753499,-0.026733398,0.004007112,-0.0025302004,-487.9847,-0.00091257616,-0.008863113,-0.038582586,-0.043585267,-0.00090424286,0.00046052953,-0.0002578646,0.02789816,-0.0144481445,-0.00848621,0.0067691086,0.0003763249,-0.0059656706,-0.004130732,2.0481999e-05,487.9847,0.1000061,0.010000001,-487.9847,0.12089949,0.11334634,0.08073641,0.04941564,inf,inf,inf,inf,inf,160,1,1,1,1,3,3,2,1,3,1,1,1,0,3,0,0
1771685124460000,1771685124460000,1771685124460000,1771684928340000,47.3977419,8.5455939,0.010964171,-0.0752993,-0.026916504,0.004007112,-0.0025302004,-487.9847,-0.0007528163,-0.008946153,-0.03885989,-0.043774307,-0.00090424286,0.00046052953,-0.0002578646,0.0160575,-0.020798545,-0.041409858,0.0067602387,0.00037643462,-0.0059739435,-0.004130732,2.0526288e-05,487.9847,0.1000061,0.010000001,-487.9847,0.12130852,0.11359801,0.08103682,0.04949847,inf,inf,inf,inf,inf,160,1,1,1,1,3,3,2,1,3,1,1,1,0,3,0,0
1771685124468000,1771685124468000,1771685124468000,1771684928340000,47.3977419,8.5455939,0.010985727,-0.075251,-0.027130127,0.004007112,-0.0025302004,-487.9847,-0.0006987029,-0.00893163,-0.039238513,-0.044065673,-0.00090424286,0.00046052953,-0.0002578646,0.0024851167,-0.0085042585,-0.0539273,0.0067980033,0.00037562748,-0.005935469,-0.004130732,2.0559704e-05,487.9847,0.1000061,0.010000001,-487.9847,0.12171789,0.11385053,0.08132724,0.049581174,inf,inf,inf,inf,inf,160,1,1,1,1,3,3,2,1,3,1,1,1,0,3,0,0
1771685124476000,1771685124476000,1771685124476000,1771684928340000,47.3977419,8.5455939,0.011005947,-0.0752058,-0.027313232,0.004007112,-0.0025302004,-487.9847,-0.00069292716,-0.008926178,-0.03925911,-0.044000007,-0.00090424286,0.00046052953,-0.0002578646,-0.0033984145,-0.009346682,-0.009030568,0.006856776,0.0003757369,-0.0058744834,-0.004130732,2.0604057e-05,487.9847,0.1000061,0.010000001,-487.9847,0.12213239,0.114103876,0.08162848,0.049663752,inf,inf,inf,inf,inf,160,1,1,1,1,3,3,2,1,3,1,1,1,0,3,0,0
1771685124484000,1771685124484000,1771685124484000,1771684928340000,47.3977419,8.5455939,0.011041309,-0.07514978,-0.027526855,0.004007112,-0.0025302004,-487.9847,-0.0006123062,-0.008854584,-0.03934943,-0.04400229,-0.00090424286,0.00046052953,-0.0002578646,0.005000311,-0.0021873529,-0.018596182,0.006833354,0.00037582018,-0.0058955834,-0.004130732,2.0368181e-05,487.9847,0.1000061,0.010000001,-487.9847,0.11988491,0.11277808,0.07998,0.04921731,inf,inf,inf,inf,inf,160,1,1,1,1,3,3,2,1,3,1,1,1,0,3,0,0
1771685124492000,1771685124492000,1771685124492000,1771684928340000,47.3977419,8.5455939,0.011075851,-0.07509622,-0.027740479,0.004007112,-0.0025302004,-487.9847,-0.0005267265,-0.008644297,-0.03933528,-0.04390114,-0.00090424286,0.00046052953,-0.0002578646,0.0057034693,0.015453223,-0.005373731,0.0067973593,0.00037577242,-0.0059292642,-0.004130732,2.0410289e-05,487.9847,0.1000061,0.010000001,-487.9847,0.12028663,0.11302778,0.080278434,0.049300443,inf,inf,inf,inf,inf,160,1,1,1,1,3,3,2,1,3,1,1,1,0,3,0,0
1771685124500000,1771685124500000,1771685124500000,1771684928340000,47.3977419,8.5455939,0.011108223,-0.07504173,-0.027923584,0.004007112,-0.0025302004,-487.9847,-0.00076221215,-0.00802806,-0.039306406,-0.04378624,-0.00090424286,0.00046052953,-0.0002578646,-0.034256585,0.06650674,-0.0033732501,0.006833423,0.00037588182,-0.0058915103,-0.004130732,2.0454507e-05,487.9847,0.1000061,0.010000001,-487.9847,0.12069147,0.11327832,0.08057833,0.049383447,inf,inf,inf,inf,inf,160,1,1,1,1,3,3,2,1,3,1,1,1,0,3,0,0
1771685124508000,1771685124508000,1771685124508000,1771684928340000,47.3977419,8.5455939,0.011137464,-0.07498602,-0.028137207,0.004007112,-0.0025302004,-487.9847,-0.000623852,-0.007540762,-0.039292388,-0.0436811,-0.00090424286,0.00046052953,-0.0002578646,0.012645444,0.05069509,-0.005282927,0.0068864464,0.00037599137,-0.0058368,-0.004130732,2.0498766e-05,487.9847,0.1000061,0.010000001,-487.9847,0.121099055,0.113470525,0.080878526,0.04945589,inf,inf,inf,inf,inf,160,1,1,1,1,3,3,2,1,3,1,1,1,0,3,0,0
1771685124516000,1771685124516000,1771685124516000,1771684928340000,47.3977419,8.5455939,0.011168595,-0.07493126,-0.028320312,0.004007112,-0.0025302004,-487.9847,-7.7570934e-05,-0.0075954315,-0.039209984,-0.043508697,-0.00090424286,0.00046052953,-0.0002578646,0.06380191,-0.016758202,0.0034221446,0.0069649275,0.00037610086,-0.0057566385,-0.004130732,2.0543059e-05,487.9847,0.1000061,0.010000001,-487.9847,0.1215094,0.11372261,0.08117885,0.049538657,inf,inf,inf,inf,inf,160,1,1,1,1,3,3,2,1,3,1,1,1,0,3,0,0
1771685124524000,1771685124524000,1771685124524000,1771684928340000,47.3977419,8.5455939,0.011201344,-0.07487909,-0.028533936,0.004007112,-0.0025302004,-487.9847,0.00031278428,-0.007455,-0.03945836,-0.043668147,-0.00090424286,0.00046052953,-0.0002578646,0.044467177,0.007911148,-0.037772577,0.006996261,0.00037621037,-0.005723632,-0.004130732,2.0587391e-05,487.9847,0.1000061,0.010000001,-487.9847,0.12192251,0.113975525,0.081479765,0.049621295,inf,inf,inf,inf,inf,160,1,1,1,1,3,3,2,1,3,1,1,1,0,3,0,0
