timestamp,pub_timestamp,timestamp_sample,ref_timestamp,ref_lat,ref_lon,x,y,z,delta_xy[0],delta_xy[1],delta_z,vx,vy,vz,z_deriv,delta_vxy[0],delta_vxy[1],delta_vz,ax,ay,az,heading,heading_var,unaided_heading,delta_heading,tilt_var,ref_alt,dist_bottom,dist_bottom_var,delta_dist_bottom,eph,epv,evh,evv,vxy_max,vz_max,hagl_min,hagl_max_z,hagl_max_xy,publisher_id,xy_valid,z_valid,v_xy_valid,v_z_valid,xy_reset_counter,z_reset_counter,vxy_reset_counter,vz_reset_counter,heading_reset_counter,heading_good_for_control,xy_global,z_global,dist_bottom_valid,dist_bottom_reset_counter,dist_bottom_sensor_bitfield,dead_reckoning
1771685326412000,1771685326412000,1771685326412000,1771684928340000,47.3977419,8.5455939,-0.04563756,-0.0023586417,0.025360107,0.004007112,-0.0025302004,-487.9847,0.00081848394,0.017887961,-0.035771426,-0.09225378,-0.00090424286,0.00046052953,-0.0002578646,0.02530962,0.05010974,-0.033142973,-0.004158533,0.00033722262,-0.010304945,-0.0090063345,1.906116e-05,487.9847,0.1000061,0.010000001,-487.9847,0.12049682,0.113123946,0.08044737,0.049310263,inf,inf,inf,inf,inf,160,1,1,1,1,3,3,2,1,4,1,1,1,0,3,0,0
1771685326420000,1771685326420000,1771685326420000,1771684928340000,47.3977419,8.5455939,-0.045593232,-0.0023532961,0.024993896,0.004007112,-0.0025302004,-487.9847,0.00075815985,0.018392209,-0.0359539,-0.09213669,-0.00090424286,0.00046052953,-0.0002578646,-0.010273156,0.07559949,-0.021191312,-0.004173191,0.00033733045,-0.010316594,-0.0090063345,1.9105455e-05,487.9847,0.1000061,0.010000001,-487.9847,0.120903164,0.11331572,0.0807471,0.049382675,inf,inf,inf,inf,inf,160,1,1,1,1,3,3,2,1,4,1,1,1,0,3,0,0
1771685326428000,1771685326428000,1771685326428000,1771684928340000,47.3977419,8.5455939,-0.045554936,-0.0023428095,0.024627686,0.004007112,-0.0025302004,-487.9847,0.0005893057,0.018565651,-0.036150288,-0.09202798,-0.00090424286,0.00046052953,-0.0002578646,-0.02313721,0.034076408,-0.023102386,-0.0041525033,0.00033654377,-0.010292985,-0.0090063345,1.9138992e-05,487.9847,0.1000061,0.010000001,-487.9847,0.12130989,0.11356713,0.08103904,0.049465343,inf,inf,inf,inf,inf,160,1,1,1,1,3,3,2,1,4,1,1,1,0,3,0,0
1771685326436000,1771685326436000,1771685326436000,1771684928340000,47.3977419,8.5455939,-0.04551794,-0.002328789,0.024261475,0.004007112,-0.0025302004,-487.9847,0.00073410745,0.018626537,-0.036364093,-0.09193135,-0.00090424286,0.00046052953,-0.0002578646,0.016146543,0.019681389,-0.025447456,-0.0041774623,0.0003366514,-0.010316265,-0.0090063345,1.9183353e-05,487.9847,0.1000061,0.010000001,-487.9847,0.1217217,0.11381937,0.08134035,0.04954789,inf,inf,inf,inf,inf,160,1,1,1,1,3,3,2,1,4,1,1,1,0,3,0,0
1771685326444000,1771685326444000,1771685326444000,1771684928340000,47.3977419,8.5455939,-0.045481745,-0.0023113508,0.023895264,0.004007112,-0.0025302004,-487.9847,0.00070636545,0.018652163,-0.035935376,-0.09118703,-0.00090424286,0.00046052953,-0.0002578646,-0.0053499695,0.014962509,0.054705884,-0.0041661966,0.00033675903,-0.010303412,-0.0090063345,1.9227751e-05,487.9847,0.1000061,0.010000001,-487.9847,0.12213628,0.11407244,0.08164242,0.049630303,inf,inf,inf,inf,inf,160,1,1,1,1,3,3,2,1,4,1,1,1,0,3,0,0
1771685326452000,1771685326452000,1771685326452000,1771684928340000,47.3977419,8.5455939,-0.045434944,-0.0023135063,0.023529053,0.004007112,-0.0025302004,-487.9847,0.00065966515,0.01860327,-0.035951827,-0.09092542,-0.00090424286,0.00046052953,-0.0002578646,-0.008264826,0.0077813687,-0.00038184223,-0.0042112134,0.00033684276,-0.0103469305,-0.0090063345,1.8991435e-05,487.9847,0.1000061,0.010000001,-487.9847,0.11988835,0.11274811,0.07999316,0.049184754,inf,inf,inf,inf,inf,160,1,1,1,1,3,3,2,1,4,1,1,1,0,3,0,0
1771685326460000,1771685326460000,1771685326460000,1771684928340000,47.3977419,8.5455939,-0.04539052,-0.0023125692,0.023132324,0.004007112,-0.0025302004,-487.9847,0.0006016035,0.01862493,-0.036148753,-0.09083894,-0.00090424286,0.00046052953,-0.0002578646,-0.009592182,0.016230412,-0.023114027,-0.004190247,0.00033695044,-0.010324391,-0.0090063345,1.9035673e-05,487.9847,0.1000061,0.010000001,-487.9847,0.120290525,0.11299755,0.08029243,0.049267728,inf,inf,inf,inf,inf,160,1,1,1,1,3,3,2,1,4,1,1,1,0,3,0,0
1771685326468000,1771685326468000,1771685326468000,1771684928340000,47.3977419,8.5455939,-0.045347057,-0.002308283,0.022766113,0.004007112,-0.0025302004,-487.9847,0.00080189755,0.018535761,-0.036032766,-0.09043446,-0.00090424286,0.00046052953,-0.0002578646,0.022835009,0.0019576845,0.015832016,-0.004202291,0.00033690687,-0.010334982,-0.0090063345,1.9077845e-05,487.9847,0.1000061,0.010000001,-487.9847,0.120695055,0.11324782,0.08059023,0.049350575,inf,inf,inf,inf,inf,160,1,1,1,1,3,3,2,1,4,1,1,1,0,3,0,0
1771685326476000,1771685326476000,1771685326476000,1771684928340000,47.3977419,8.5455939,-0.045303732,-0.0023016457,0.022399902,0.004007112,-0.0025302004,-487.9847,0.00095626916,0.018414106,-0.035785638,-0.08989102,-0.00090424286,0.00046052953,-0.0002578646,0.017175293,-0.002443833,0.031969972,-0.004207795,0.00033701462,-0.010341283,-0.0090063345,1.9122152e-05,487.9847,0.1000061,0.010000001,-487.9847,0.12110271,0.113439806,0.08089025,0.049422875,inf,inf,inf,inf,inf,160,1,1,1,1,3,3,2,1,4,1,1,1,0,3,0,0
1771685326484000,1771685326484000,1771685326484000,1771684928340000,47.3977419,8.5455939,-0.045260854,-0.0022937634,0.022064209,0.004007112,-0.0025302004,-487.9847,0.0010307464,0.018112607,-0.035906494,-0.08971099,-0.00090424286,0.00046052953,-0.0002578646,0.007267689,-0.02526,-0.014182645,-0.004205692,0.00033712236,-0.010340096,-0.0090063345,1.9166495e-05,487.9847,0.1000061,0.010000001,-487.9847,0.12151313,0.11369162,0.081192955,0.049505483,inf,inf,inf,inf,inf,160,1,1,1,1,3,3,2,1,4,1,1,1,0,3,0,0
1771685326492000,1771685326492000,1771685326492000,1771684928340000,47.3977419,8.5455939,-0.045220263,-0.002284229,0.021697998,0.004007112,-0.0025302004,-487.9847,0.00072113663,0.01812298,-0.03612213,-0.08962126,-0.00090424286,0.00046052953,-0.0002578646,-0.040659714,0.013427241,-0.026179941,-0.004208835,0.0003363373,-0.010344271,-0.0090063345,1.9200004e-05,487.9847,0.1000061,0.010000001,-487.9847,0.12192388,0.11394427,0.08148461,0.049587965,inf,inf,inf,inf,inf,160,1,1,1,1,3,3,2,1,4,1,1,1,0,3,0,0
1771685326500000,1771685326500000,1771685326500000,1771684928340000,47.3977419,8.5455939,-0.045170728,-0.0022794178,0.021331787,0.004007112,-0.0025302004,-487.9847,0.0006176888,0.018132837,-0.035885658,-0.08911274,-0.00090424286,0.00046052953,-0.0002578646,-0.015535677,0.014655845,0.0307383,-0.00412307,0.0003364212,-0.010259942,-0.0090063345,1.8965919e-05,487.9847,0.1000061,0.010000001,-487.9847,0.11969105,0.11262505,0.0798462,0.0491443,inf,inf,inf,inf,inf,160,1,1,1,1,3,3,2,1,4,1,1,1,0,3,0,0
1771685326508000,1771685326508000,1771685326508000,1771684928340000,47.3977419,8.5455939,-0.04512161,-0.002270805,0.020965576,0.004007112,-0.0025302004,-487.9847,0.00090925203,0.018252097,-0.03582408,-0.08877379,-0.00090424286,0.00046052953,-0.0002578646,0.033935275,0.027979631,0.008720438,-0.0040479135,0.00033652864,-0.010186194,-0.0090063345,1.9010124e-05,487.9847,0.1000061,0.010000001,-487.9847,0.120091885,0.11287408,0.08014485,0.04922734,inf,inf,inf,inf,inf,160,1,1,1,1,3,3,2,1,4,1,1,1,0,3,0,0
1771685326516000,1771685326516000,1771685326516000,1771684928340000,47.3977419,8.5455939,-0.045071676,-0.0022600144,0.020599365,0.004007112,-0.0025302004,-487.9847,0.0012165881,0.017970616,-0.035623167,-0.08829043,-0.00090424286,0.00046052953,-0.0002578646,0.03599797,-0.022455804,0.025985295,-0.004017473,0.00033663612,-0.010157276,-0.0090063345,1.9054369e-05,487.9847,0.1000061,0.010000001,-487.9847,0.12049545,0.113123946,0.08044528,0.04931025,inf,inf,inf,inf,inf,160,1,1,1,1,3,3,2,1,4,1,1,1,0,3,0,0
1771685326524000,1771685326524000,1771685326524000,1771684928340000,47.3977419,8.5455939,-0.045022115,-0.0022479703,0.020233154,0.004007112,-0.0025302004,-487.9847,0.0012926159,0.017942198,-0.035108916,-0.08748587,-0.00090424286,0.00046052953,-0.0002578646,0.0071733943,0.0088388575,0.06489036,-0.00396982,0.0003367435,-0.010111249,-0.0090063345,1.9098643e-05,487.9847,0.1000061,0.010000001,-487.9847,0.12090178,0.11331572,0.08074525,0.049382664,inf,inf,inf,inf,inf,160,1,1,1,1,3,3,2,1,4,1,1,1,0,3,0,0
1771685326532000,1771685326532000,1771685326532000,1771684928340000,47.3977419,8.5455939,-0.04497158,-0.0022321793,0.019897461,0.004007112,-0.0025302004,-487.9847,0.0017657045,0.018117277,-0.03529143,-0.08737357,-0.00090424286,0.00046052953,-0.0002578646,0.056889713,0.03394611,-0.022343824,-0.0038826598,0.00033685096,-0.010025814,-0.0090063345,1.9142955e-05,487.9847,0.1000061,0.010000001,-487.9847,0.12131085,0.11356713,0.08104606,0.049465336,inf,inf,inf,inf,inf,160,1,1,1,1,3,3,2,1,4,1,1,1,0,3,0,0
1771685326540000,1771685326540000,1771685326540000,1771684928340000,47.3977419,8.5455939,-0.04492075,-0.0022121735,0.019561768,0.004007112,-0.0025302004,-487.9847,0.0018290306,0.01838622,-0.035593193,-0.087376215,-0.00090424286,0.00046052953,-0.0002578646,0.005751897,0.04536494,-0.03738468,-0.00383266,0.00033695868,-0.009977637,-0.0090063345,1.9187319e-05,487.9847,0.1000061,0.010000001,-487.9847,0.1217227,0.11381937,0.08134666,0.049547873,inf,inf,inf,inf,inf,160,1,1,1,1,3,3,2,1,4,1,1,1,0,3,0,0
1771685326548000,1771685326548000,1771685326548000,1771684928340000,47.3977419,8.5455939,-0.044870216,-0.0021871268,0.019226074,0.004007112,-0.0025302004,-487.9847,0.0020183476,0.018572386,-0.03569273,-0.087172545,-0.00090424286,0.00046052953,-0.0002578646,0.021586776,0.034707673,-0.012236646,-0.0038060346,0.00033706633,-0.009952931,-0.0090063345,1.9231713e-05,487.9847,0.1000061,0.010000001,-487.9847,0.1221373,0.11407244,0.08164712,0.049630288,inf,inf,inf,inf,inf,160,1,1,1,1,3,3,2,1,4,1,1,1,0,3,0,0
1771685326556000,1771685326556000,1771685326556000,1771684928340000,47.3977419,8.5455939,-0.044807516,-0.0021676267,0.018859863,0.004007112,-0.0025302004,-487.9847,0.002265193,0.018436864,-0.035677105,-0.086890385,-0.00090424286,0.00046052953,-0.0002578646,0.028196884,-0.004191033,0.0026533378,-0.0038433166,0.00033715076,-0.009992226,-0.0090063345,1.8995263e-05,487.9847,0.1000061,0.010000001,-487.9847,0.11988926,0.11274811,0.07999702,0.049184743,inf,inf,inf,inf,inf,160,1,1,1,1,3,3,2,1,4,1,1,1,0,3,0,0
1771685326564000,1771685326564000,1771685326564000,1771684928340000,47.3977419,8.5455939,-0.044745684,-0.0021455763,0.01852417,0.004007112,-0.0025302004,-487.9847,0.0023901924,0.018236233,-0.03611088,-0.087052494,-0.00090424286,0.00046052953,-0.0002578646,0.013246073,-0.012923079,-0.05366187,-0.0038369142,0.00033636473,-0.009987796,-0.0090063345,1.9028828e-05,487.9847,0.1000061,0.010000001,-487.9847,0.12028922,0.11299755,0.08028826,0.04926772,inf,inf,inf,inf,inf,160,1,1,1,1,3,3,2,1,4,1,1,1,0,3,0,0
1771685326572000,1771685326572000,1771685326572000,1771684928340000,47.3977419,8.5455939,-0.044685166,-0.0021211319,0.018157959,0.004007112,-0.0025302004,-487.9847,0.0024209206,0.01847727,-0.036370423,-0.08703543,-0.00090424286,0.00046052953,-0.0002578646,0.0015534646,0.041955106,-0.03201747,-0.0038421452,0.00033647215,-0.009992985,-0.0090063345,1.907309e-05,487.9847,0.1000061,0.010000001,-487.9847,0.120694116,0.11324782,0.08058839,0.049350567,inf,inf,inf,inf,inf,160,1,1,1,1,3,3,2,1,4,1,1,1,0,3,0,0
1771685326580000,1771685326580000,1771685326580000,1771684928340000,47.3977419,8.5455939,-0.04462483,-0.002091415,0.017822266,0.004007112,-0.0025302004,-487.9847,0.0027149685,0.018691717,-0.03654099,-0.086919665,-0.00090424286,0.00046052953,-0.0002578646,0.034553394,0.03831082,-0.02118293,-0.0038292033,0.0003365796,-0.009980094,-0.0090063345,1.9117386e-05,487.9847,0.1000061,0.010000001,-487.9847,0.12110176,0.113439806,0.08088877,0.049422868,inf,inf,inf,inf,inf,160,1,1,1,1,3,3,2,1,4,1,1,1,0,3,0,0
1771685326588000,1771685326588000,1771685326588000,1771684928340000,47.3977419,8.5455939,-0.044564433,-0.0020589256,0.017456055,0.004007112,-0.0025302004,-487.9847,0.0028799444,0.018671049,-0.036768816,-0.086856805,-0.00090424286,0.00046052953,-0.0002578646,0.018503027,0.008612696,-0.028463079,-0.0038268187,0.0003366871,-0.009977847,-0.0090063345,1.9161722e-05,487.9847,0.1000061,0.010000001,-487.9847,0.12151215,0.11369162,0.08118964,0.049505476,inf,inf,inf,inf,inf,160,1,1,1,1,3,3,2,1,4,1,1,1,0,3,0,0
1771685326596000,1771685326596000,1771685326596000,1771684928340000,47.3977419,8.5455939,-0.044504236,-0.0020252944,0.017150879,0.004007112,-0.0025302004,-487.9847,0.002968178,0.01832072,-0.0364411,-0.08623431,-0.00090424286,0.00046052953,-0.0002578646,0.008994751,-0.032890957,0.04086131,-0.0038264038,0.00033679465,-0.0099776285,-0.0090063345,1.9206096e-05,487.9847,0.1000061,0.010000001,-487.9847,0.12192532,0.11394427,0.081489034,0.049587958,inf,inf,inf,inf,inf,160,1,1,1,1,3,3,2,1,4,1,1,1,0,3,0,0
1771685326604000,1771685326604000,1771685326604000,1771684928340000,47.3977419,8.5455939,-0.04443331,-0.0020012935,0.016784668,0.004007112,-0.0025302004,-487.9847,0.0031515982,0.018145643,-0.036341015,-0.08587216,-0.00090424286,0.00046052953,-0.0002578646,0.020341467,-0.009467327,0.012802425,-0.0038451466,0.00033687893,-0.00999662,-0.0090063345,1.8971841e-05,487.9847,0.1000061,0.010000001,-487.9847,0.11969233,0.11262505,0.07985105,0.049144298,inf,inf,inf,inf,inf,160,1,1,1,1,3,3,2,1,4,1,1,1,0,3,0,0
1771685326612000,1771685326612000,1771685326612000,1771684928340000,47.3977419,8.5455939,-0.044361427,-0.001974988,0.016418457,0.004007112,-0.0025302004,-487.9847,0.0035076316,0.018211069,-0.03587036,-0.0851345,-0.00090424286,0.00046052953,-0.0002578646,0.04201122,0.020261424,0.058997884,-0.0038031882,0.00033698656,-0.009954808,-0.0090063345,1.9016054e-05,487.9847,0.1000061,0.010000001,-487.9847,0.12009319,0.11287408,0.08015085,0.049227335,inf,inf,inf,inf,inf,160,1,1,1,1,3,3,2,1,4,1,1,1,0,3,0,0
1771685326620000,1771685326620000,1771685326620000,1771684928340000,47.3977419,8.5455939,-0.044290602,-0.0019464791,0.016082764,0.004007112,-0.0025302004,-487.9847,0.0033556812,0.018042557,-0.035634853,-0.08462727,-0.00090424286,0.00046052953,-0.0002578646,-0.0213919,-0.009306391,0.029482411,-0.0038668134,0.00033709427,-0.010018634,-0.0090063345,1.906031e-05,487.9847,0.1000061,0.010000001,-487.9847,0.120496795,0.113123946,0.08045024,0.049310245,inf,inf,inf,inf,inf,160,1,1,1,1,3,3,2,1,4,1,1,1,0,3,0,0
1771685326628000,1771685326628000,1771685326628000,1771684928340000,47.3977419,8.5455939,-0.044222508,-0.0019183544,0.01574707,0.004007112,-0.0025302004,-487.9847,0.0032731716,0.017555531,-0.035756566,-0.08446782,-0.00090424286,0.00046052953,-0.0002578646,-0.012625142,-0.04941848,-0.015472061,-0.0039185225,0.0003363088,-0.010070594,-0.0090063345,1.9093855e-05,487.9847,0.1000061,0.010000001,-487.9847,0.12090084,0.11331572,0.080740355,0.049382657,inf,inf,inf,inf,inf,160,1,1,1,1,3,3,2,1,4,1,1,1,0,3,0,0
1771685326636000,1771685326636000,1771685326636000,1771684928340000,47.3977419,8.5455939,-0.044156563,-0.0018889919,0.015411377,0.004007112,-0.0025302004,-487.9847,0.0031887284,0.017815895,-0.03643132,-0.08485743,-0.00090424286,0.00046052953,-0.0002578646,-0.012778164,0.043701176,-0.08471123,-0.003976261,0.00033641612,-0.010128751,-0.0090063345,1.9138166e-05,487.9847,0.1000061,0.010000001,-487.9847,0.121309884,0.11356712,0.08104076,0.049465325,inf,inf,inf,inf,inf,160,1,1,1,1,3,3,2,1,4,1,1,1,0,3,0,0
1771685326644000,1771685326644000,1771685326644000,1771684928340000,47.3977419,8.5455939,-0.044092476,-0.0018551076,0.015106201,0.004007112,-0.0025302004,-487.9847,0.0032991078,0.017932434,-0.036655057,-0.084792204,-0.00090424286,0.00046052953,-0.0002578646,0.011662186,0.025420718,-0.028439796,-0.003995903,0.00033652358,-0.010148801,-0.0090063345,1.918252e-05,487.9847,0.1000061,0.010000001,-487.9847,0.1217217,0.11381937,0.081341535,0.049547866,inf,inf,inf,inf,inf,160,1,1,1,1,3,3,2,1,4,1,1,1,0,3,0,0
1771685326652000,1771685326652000,1771685326652000,1771684928340000,47.3977419,8.5455939,-0.044028834,-0.0018189712,0.014770508,0.004007112,-0.0025302004,-487.9847,0.0033462415,0.017952457,-0.036835212,-0.084679805,-0.00090424286,0.00046052953,-0.0002578646,0.0038381102,0.013070287,-0.023093538,-0.00394317,0.00033663106,-0.010096461,-0.0090063345,1.9226913e-05,487.9847,0.1000061,0.010000001,-487.9847,0.12213628,0.11407244,0.08164151,0.049630284,inf,inf,inf,inf,inf,160,1,1,1,1,3,3,2,1,4,1,1,1,0,3,0,0
1771685326660000,1771685326660000,1771685326660000,1771684928340000,47.3977419,8.5455939,-0.04395518,-0.0017961346,0.014434814,0.004007112,-0.0025302004,-487.9847,0.0034120744,0.018155364,-0.03701298,-0.08459718,-0.00090424286,0.00046052953,-0.0002578646,0.005676711,0.03783264,-0.022437422,-0.0039555994,0.00033671493,-0.010109254,-0.0090063345,1.899064e-05,487.9847,0.1000061,0.010000001,-487.9847,0.11988837,0.1127481,0.079991765,0.049184736,inf,inf,inf,inf,inf,160,1,1,1,1,3,3,2,1,4,1,1,1,0,3,0,0
1771685326668000,1771685326668000,1771685326668000,1771684928340000,47.3977419,8.5455939,-0.043884218,-0.0017708126,0.0140686035,0.004007112,-0.0025302004,-487.9847,0.0031732682,0.01798524,-0.03725356,-0.08457296,-0.00090424286,0.00046052953,-0.0002578646,-0.032304347,-0.009174021,-0.030397901,-0.004017157,0.00033667183,-0.01017097,-0.0090063345,1.9032785e-05,487.9847,0.1000061,0.010000001,-487.9847,0.12029016,0.11299754,0.0802891,0.049267713,inf,inf,inf,inf,inf,160,1,1,1,1,3,3,2,1,4,1,1,1,0,3,0,0
1771685326676000,1771685326676000,1771685326676000,1771684928340000,47.3977419,8.5455939,-0.04381571,-0.0017424086,0.01373291,0.004007112,-0.0025302004,-487.9847,0.003259445,0.018294694,-0.037242632,-0.084293164,-0.00090424286,0.00046052953,-0.0002578646,0.00840659,0.050451756,0.00093551347,-0.004037049,0.00033677928,-0.010189927,-0.0090063345,1.9077042e-05,487.9847,0.1000061,0.010000001,-487.9847,0.12069506,0.11324782,0.080587514,0.04935056,inf,inf,inf,inf,inf,160,1,1,1,1,3,3,2,1,4,1,1,1,0,3,0,0
1771685326684000,1771685326684000,1771685326684000,1771684928340000,47.3977419,8.5455939,-0.043747008,-0.0017089123,0.013397217,0.004007112,-0.0025302004,-487.9847,0.0035518736,0.018574413,-0.037301317,-0.084075145,-0.00090424286,0.00046052953,-0.0002578646,0.034273926,0.046430252,-0.008004251,-0.004048466,0.0003368868,-0.0102003785,-0.0090063345,1.9121337e-05,487.9847,0.1000061,0.010000001,-487.9847,0.12110271,0.1134398,0.08088822,0.049422864,inf,inf,inf,inf,inf,160,1,1,1,1,3,3,2,1,4,1,1,1,0,3,0,0
1771685326692000,1771685326692000,1771685326692000,1771684928340000,47.3977419,8.5455939,-0.043678775,-0.001671747,0.013092041,0.004007112,-0.0025302004,-487.9847,0.003573836,0.018611277,-0.03724533,-0.08373893,-0.00090424286,0.00046052953,-0.0002578646,0.00054819335,0.015770884,0.006235204,-0.004103646,0.0003369942,-0.010254557,-0.0090063345,1.9165662e-05,487.9847,0.1000061,0.010000001,-487.9847,0.12151312,0.11369161,0.08118933,0.049505472,inf,inf,inf,inf,inf,160,1,1,1,1,3,3,2,1,4,1,1,1,0,3,0,0
1771685326700000,1771685326700000,1771685326700000,1771684928340000,47.3977419,8.5455939,-0.04360918,-0.0016330642,0.012756348,0.004007112,-0.0025302004,-487.9847,0.0034395524,0.018547546,-0.036825195,-0.083035186,-0.00090424286,0.00046052953,-0.0002578646,-0.019560939,0.0030428,0.051662788,-0.0040629636,0.0003362095,-0.010212835,-0.0090063345,1.9199157e-05,487.9847,0.1000061,0.010000001,-487.9847,0.12192385,0.11394426,0.08148084,0.049587954,inf,inf,inf,inf,inf,160,1,1,1,1,3,3,2,1,4,1,1,1,0,3,0,0
1771685326708000,1771685326708000,1771685326708000,1771684928340000,47.3977419,8.5455939,-0.043542597,-0.0016297578,0.012420654,0.004007112,-0.0025302004,-487.9847,0.003626806,0.018683385,-0.03656414,-0.08251984,-0.00090424286,0.00046052953,-0.0002578646,0.020937238,0.03098529,0.032040287,-0.004106214,0.00033629272,-0.010256451,-0.0090063345,1.8965151e-05,487.9847,0.1000061,0.010000001,-487.9847,0.11969106,0.11262505,0.079843365,0.049144294,inf,inf,inf,inf,inf,160,1,1,1,1,3,3,2,1,4,1,1,1,0,3,0,0
1771685326716000,1771685326716000,1771685326716000,1771684928340000,47.3977419,8.5455939,-0.04347509,-0.001623423,0.012084961,0.004007112,-0.0025302004,-487.9847,0.003928034,0.018376157,-0.036437087,-0.082134254,-0.00090424286,0.00046052953,-0.0002578646,0.035270937,-0.024774384,0.015194993,-0.0040847193,0.00033640003,-0.010235021,-0.0090063345,1.900935e-05,487.9847,0.1000061,0.010000001,-487.9847,0.120091885,0.11287408,0.080143794,0.04922733,inf,inf,inf,inf,inf,160,1,1,1,1,3,3,2,1,4,1,1,1,0,3,0,0
1771685326724000,1771685326724000,1771685326724000,1771684928340000,47.3977419,8.5455939,-0.04340772,-0.0016175259,0.011749268,0.004007112,-0.0025302004,-487.9847,0.0040408242,0.01796535,-0.036372118,-0.08180666,-0.00090424286,0.00046052953,-0.0002578646,0.011801137,-0.038089205,0.0073416154,-0.0041303113,0.00033650736,-0.010280636,-0.0090063345,1.905359e-05,487.9847,0.1000061,0.010000001,-487.9847,0.12049545,0.113123946,0.080444045,0.04931024,inf,inf,inf,inf,inf,160,1,1,1,1,3,3,2,1,4,1,1,1,0,3,0,0
1771685326732000,1771685326732000,1771685326732000,1771684928340000,47.3977419,8.5455939,-0.04334167,-0.0016090611,0.011444092,0.004007112,-0.0025302004,-487.9847,0.0038907214,0.018221239,-0.03667848,-0.08184446,-0.00090424286,0.00046052953,-0.0002578646,-0.020977,0.044891942,-0.039231494,-0.0041203513,0.00033661476,-0.010270713,-0.0090063345,1.9097866e-05,487.9847,0.1000061,0.010000001,-487.9847,0.12090177,0.11331572,0.0807445,0.049382657,inf,inf,inf,inf,inf,160,1,1,1,1,3,3,2,1,4,1,1,1,0,3,0,0
1771685326740000,1771685326740000,1771685326740000,1771684928340000,47.3977419,8.5455939,-0.043277014,-0.001596282,0.011138916,0.004007112,-0.0025302004,-487.9847,0.0040998673,0.018201841,-0.036715973,-0.081609674,-0.00090424286,0.00046052953,-0.0002578646,0.024009978,0.010128276,-0.0057071443,-0.0040784026,0.00033672227,-0.01022881,-0.0090063345,1.9142182e-05,487.9847,0.1000061,0.010000001,-487.9847,0.12131084,0.11356712,0.0810453,0.049465325,inf,inf,inf,inf,inf,160,1,1,1,1,3,3,2,1,4,1,1,1,0,3,0,0
1771685326748000,1771685326748000,1771685326748000,1771684928340000,47.3977419,8.5455939,-0.04321222,-0.0015805254,0.010803223,0.004007112,-0.0025302004,-487.9847,0.004334485,0.018317092,-0.03722178,-0.081839725,-0.00090424286,0.00046052953,-0.0002578646,0.027268648,0.026622975,-0.064328305,-0.004046039,0.00033682975,-0.0101964995,-0.0090063345,1.9186537e-05,487.9847,0.1000061,0.010000001,-487.9847,0.12172268,0.11381937,0.08134489,0.049547866,inf,inf,inf,inf,inf,160,1,1,1,1,3,3,2,1,4,1,1,1,0,3,0,0
1771685326756000,1771685326756000,1771685326756000,1771684928340000,47.3977419,8.5455939,-0.04314595,-0.0015606242,0.010498047,0.004007112,-0.0025302004,-487.9847,0.004608166,0.01852275,-0.03738194,-0.0817209,-0.00090424286,0.00046052953,-0.0002578646,0.03222535,0.037593417,-0.021201557,-0.0040434906,0.00033693726,-0.01019401,-0.0090063345,1.9230923e-05,487.9847,0.1000061,0.010000001,-487.9847,0.12213728,0.11407244,0.0816454,0.049630284,inf,inf,inf,inf,inf,160,1,1,1,1,3,3,2,1,4,1,1,1,0,3,0,0
1771685326764000,1771685326764000,1771685326764000,1771684928340000,47.3977419,8.5455939,-0.04307369,-0.0015663013,0.010192871,0.004007112,-0.0025302004,-487.9847,0.0043852534,0.018810108,-0.037403166,-0.08148265,-0.00090424286,0.00046052953,-0.0002578646,-0.029948806,0.0504153,-0.003905501,-0.004015529,0.00033612837,-0.010166112,-0.0090063345,1.8983936e-05,487.9847,0.1000061,0.010000001,-487.9847,0.11988709,0.1127481,0.07998553,0.049184736,inf,inf,inf,inf,inf,160,1,1,1,1,3,3,2,1,4,1,1,1,0,3,0,0
1771685326772000,1771685326772000,1771685326772000,1771684928340000,47.3977419,8.5455939,-0.043003384,-0.0015670361,0.009857178,0.004007112,-0.0025302004,-487.9847,0.0044557066,0.018970298,-0.03733268,-0.08114918,-0.00090424286,0.00046052953,-0.0002578646,0.0068000015,0.03412647,0.0074845734,-0.003919924,0.00033623562,-0.010071084,-0.0090063345,1.9028153e-05,487.9847,0.1000061,0.010000001,-487.9847,0.12028923,0.11299754,0.08028422,0.04926771,inf,inf,inf,inf,inf,160,1,1,1,1,3,3,2,1,4,1,1,1,0,3,0,0
1771685326780000,1771685326780000,1771685326780000,1771684928340000,47.3977419,8.5455939,-0.042934142,-0.0015629898,0.009552002,0.004007112,-0.0025302004,-487.9847,0.0044565233,0.019117786,-0.037836354,-0.08138658,-0.00090424286,0.00046052953,-0.0002578646,-0.0018345052,0.032158483,-0.064356714,-0.0038520263,0.0003363429,-0.010003767,-0.0090063345,1.9072408e-05,487.9847,0.1000061,0.010000001,-487.9847,0.12069411,0.11324782,0.08058414,0.049350556,inf,inf,inf,inf,inf,160,1,1,1,1,3,3,2,1,4,1,1,1,0,3,0,0
1771685326788000,1771685326788000,1771685326788000,1771684928340000,47.3977419,8.5455939,-0.042866644,-0.0015543246,0.009216309,0.004007112,-0.0025302004,-487.9847,0.0043981215,0.019363558,-0.037898224,-0.08117696,-0.00090424286,0.00046052953,-0.0002578646,-0.009176152,0.04407772,-0.009275041,-0.003850211,0.0003364503,-0.010002537,-0.0090063345,1.9116706e-05,487.9847,0.1000061,0.010000001,-487.9847,0.12110173,0.1134398,0.08088583,0.049422856,inf,inf,inf,inf,inf,160,1,1,1,1,3,3,2,1,4,1,1,1,0,3,0,0
1771685326796000,1771685326796000,1771685326796000,1771684928340000,47.3977419,8.5455939,-0.042800616,-0.0015397229,0.008911133,0.004007112,-0.0025302004,-487.9847,0.0044082333,0.019707836,-0.038165182,-0.081169374,-0.00090424286,0.00046052953,-0.0002578646,-0.0005436636,0.05603437,-0.034975816,-0.003890898,0.00033655766,-0.010043808,-0.0090063345,1.9161034e-05,487.9847,0.1000061,0.010000001,-487.9847,0.12151212,0.11369161,0.08118673,0.049505465,inf,inf,inf,inf,inf,160,1,1,1,1,3,3,2,1,4,1,1,1,0,3,0,0
1771685326804000,1771685326804000,1771685326804000,1771684928340000,47.3977419,8.5455939,-0.042736158,-0.0015202266,0.008605957,0.004007112,-0.0025302004,-487.9847,0.0043216553,0.019854128,-0.038384285,-0.081111,-0.00090424286,0.00046052953,-0.0002578646,-0.012561993,0.03093813,-0.029055865,-0.003901833,0.00033666493,-0.01005533,-0.0090063345,1.9205396e-05,487.9847,0.1000061,0.010000001,-487.9847,0.12192527,0.11394426,0.08148776,0.049587943,inf,inf,inf,inf,inf,160,1,1,1,1,3,3,2,1,4,1,1,1,0,3,0,0
1771685326812000,1771685326812000,1771685326812000,1771684928340000,47.3977419,8.5455939,-0.042677235,-0.0015129605,0.008300781,0.004007112,-0.0025302004,-487.9847,0.0040232167,0.019736322,-0.038181316,-0.080647185,-0.00090424286,0.00046052953,-0.0002578646,-0.038610905,-0.00034594175,0.023518687,-0.003893743,0.00033674855,-0.010047828,-0.0090063345,1.8971186e-05,487.9847,0.1000061,0.010000001,-487.9847,0.11969229,0.11262505,0.079850346,0.049144287,inf,inf,inf,inf,inf,160,1,1,1,1,3,3,2,1,4,1,1,1,0,3,0,0
1771685326820000,1771685326820000,1771685326820000,1771684928340000,47.3977419,8.5455939,-0.042621948,-0.001503615,0.007965088,0.004007112,-0.0025302004,-487.9847,0.003789554,0.019687003,-0.038432606,-0.08063427,-0.00090424286,0.00046052953,-0.0002578646,-0.030456996,0.007826003,-0.03331806,-0.003981653,0.00033685603,-0.010136159,-0.0090063345,1.9015395e-05,487.9847,0.1000061,0.010000001,-487.9847,0.12009315,0.11287408,0.08015017,0.049227323,inf,inf,inf,inf,inf,160,1,1,1,1,3,3,2,1,4,1,1,1,0,3,0,0
1771685326828000,1771685326828000,1771685326828000,1771684928340000,47.3977419,8.5455939,-0.042567782,-0.0014902179,0.007659912,0.004007112,-0.0025302004,-487.9847,0.0039567174,0.019902099,-0.03843343,-0.080367684,-0.00090424286,0.00046052953,-0.0002578646,0.019695718,0.040497433,-0.002061948,-0.00404916,0.00033696354,-0.010204098,-0.0090063345,1.905964e-05,487.9847,0.1000061,0.010000001,-487.9847,0.12049675,0.113123946,0.08044983,0.049310233,inf,inf,inf,inf,inf,160,1,1,1,1,3,3,2,1,4,1,1,1,0,3,0,0
1771685326836000,1771685326836000,1771685326836000,1771684928340000,47.3977419,8.5455939,-0.042512167,-0.0014706858,0.0073547363,0.004007112,-0.0025302004,-487.9847,0.00392184,0.020411551,-0.03850002,-0.08016183,-0.00090424286,0.00046052953,-0.0002578646,-0.0059513627,0.0769924,-0.010404269,-0.004052688,0.0003361784,-0.010208093,-0.0090063345,1.9093171e-05,487.9847,0.1000061,0.010000001,-487.9847,0.120900795,0.11331572,0.08074088,0.049382646,inf,inf,inf,inf,inf,160,1,1,1,1,3,3,2,1,4,1,1,1,0,3,0,0
1771685326844000,1771685326844000,1771685326844000,1771684928340000,47.3977419,8.5455939,-0.04245859,-0.0014453741,0.007080078,0.004007112,-0.0025302004,-487.9847,0.0036815868,0.02060666,-0.038246263,-0.07963286,-0.00090424286,0.00046052953,-0.0002578646,-0.031564455,0.037338734,0.029591842,-0.004057601,0.00033628568,-0.010214318,-0.0090063345,1.9137482e-05,487.9847,0.1000061,0.010000001,-487.9847,0.12130984,0.11356712,0.08104086,0.049465317,inf,inf,inf,inf,inf,160,1,1,1,1,3,3,2,1,4,1,1,1,0,3,0,0
1771685326852000,1771685326852000,1771685326852000,1771684928340000,47.3977419,8.5455939,-0.04240883,-0.0014152009,0.0067749023,0.004007112,-0.0025302004,-487.9847,0.0031902727,0.020889457,-0.03810239,-0.079211235,-0.00090424286,0.00046052953,-0.0002578646,-0.06289093,0.04795106,0.015811993,-0.0040623955,0.0003363931,-0.010220462,-0.0090063345,1.9181838e-05,487.9847,0.1000061,0.010000001,-487.9847,0.121721655,0.11381937,0.08134009,0.04954786,inf,inf,inf,inf,inf,160,1,1,1,1,3,3,2,1,4,1,1,1,0,3,0,0
1771685326860000,1771685326860000,1771685326860000,1771684928340000,47.3977419,8.5455939,-0.042365048,-0.0013800089,0.006500244,0.004007112,-0.0025302004,-487.9847,0.002665474,0.02108896,-0.038030166,-0.07885897,-0.00090424286,0.00046052953,-0.0002578646,-0.06701717,0.03719865,0.0068121585,-0.0040395125,0.00033650032,-0.0101989675,-0.0090063345,1.922622e-05,487.9847,0.1000061,0.010000001,-487.9847,0.12213623,0.11407244,0.08164018,0.049630277,inf,inf,inf,inf,inf,160,1,1,1,1,3,3,2,1,4,1,1,1,0,3,0,0
1771685326868000,1771685326868000,1771685326868000,1771684928340000,47.3977419,8.5455939,-0.0423071,-0.0013497233,0.0061950684,0.004007112,-0.0025302004,-487.9847,0.0024048171,0.021414133,-0.038258784,-0.078827925,-0.00090424286,0.00046052953,-0.0002578646,-0.034718573,0.05443236,-0.030830035,-0.0040092994,0.0003364332,-0.010170145,-0.0090063345,1.8987925e-05,487.9847,0.1000061,0.010000001,-487.9847,0.11988797,0.1127481,0.07998865,0.04918473,inf,inf,inf,inf,inf,160,1,1,1,1,3,3,2,1,4,1,1,1,0,3,0,0
1771685326876000,1771685326876000,1771685326876000,1771684928340000,47.3977419,8.5455939,-0.042252064,-0.0013140851,0.0058898926,0.004007112,-0.0025302004,-487.9847,0.0023907565,0.021653507,-0.038266715,-0.07857348,-0.00090424286,0.00046052953,-0.0002578646,-0.0038222296,0.043335676,-0.0032847745,-0.004049305,0.00033654048,-0.010211655,-0.0090063345,1.903214e-05,487.9847,0.1000061,0.010000001,-487.9847,0.12029012,0.11299754,0.080287956,0.0492677,inf,inf,inf,inf,inf,160,1,1,1,1,3,3,2,1,4,1,1,1,0,3,0,0
1771685326884000,1771685326884000,1771685326884000,1771684928340000,47.3977419,8.5455939,-0.04219846,-0.0012743406,0.005584717,0.004007112,-0.0025302004,-487.9847,0.0023382488,0.021682356,-0.03864351,-0.07868532,-0.00090424286,0.00046052953,-0.0002578646,-0.008563756,0.01666177,-0.04943134,-0.0040637185,0.00033664788,-0.010227584,-0.0090063345,1.9076397e-05,487.9847,0.1000061,0.010000001,-487.9847,0.120695025,0.11324782,0.080588415,0.04935055,inf,inf,inf,inf,inf,160,1,1,1,1,3,3,2,1,4,1,1,1,0,3,0,0
1771685326892000,1771685326892000,1771685326892000,1771684928340000,47.3977419,8.5455939,-0.042147163,-0.0012313627,0.0053100586,0.004007112,-0.0025302004,-487.9847,0.002156655,0.021867853,-0.038770057,-0.07854145,-0.00090424286,0.00046052953,-0.0002578646,-0.024637552,0.035892628,-0.018287914,-0.0040631252,0.00033675513,-0.0102285165,-0.0090063345,1.9120682e-05,487.9847,0.1000061,0.010000001,-487.9847,0.12110267,0.1134398,0.08088863,0.04942285,inf,inf,inf,inf,inf,160,1,1,1,1,3,3,2,1,4,1,1,1,0,3,0,0
1771685326900000,1771685326900000,1771685326900000,1771684928340000,47.3977419,8.5455939,-0.042099774,-0.0011813934,0.005004883,0.004007112,-0.0025302004,-487.9847,0.0016777818,0.022462318,-0.038838472,-0.07833718,-0.00090424286,0.00046052953,-0.0002578646,-0.061802823,0.086626835,-0.011054332,-0.0040891813,0.00033597148,-0.010256108,-0.0090063345,1.9154184e-05,487.9847,0.1000061,0.010000001,-487.9847,0.12151069,0.11369161,0.081181064,0.049505457,inf,inf,inf,inf,inf,160,1,1,1,1,3,3,2,1,4,1,1,1,0,3,0,0
1771685326908000,1771685326908000,1771685326908000,1771684928340000,47.3977419,8.5455939,-0.04205475,-0.0011263036,0.0047302246,0.004007112,-0.0025302004,-487.9847,0.0019605113,0.022577222,-0.03869593,-0.07791976,-0.00090424286,0.00046052953,-0.0002578646,0.033457242,0.026348015,0.015283468,-0.0041631768,0.00033607858,-0.010331373,-0.0090063345,1.9198538e-05,487.9847,0.1000061,0.010000001,-487.9847,0.12192382,0.11394426,0.08148214,0.04958794,inf,inf,inf,inf,inf,160,1,1,1,1,3,3,2,1,4,1,1,1,0,3,0,0
1771685326916000,1771685326916000,1771685326916000,1771684928340000,47.3977419,8.5455939,-0.04201431,-0.0010713859,0.004425049,0.004007112,-0.0025302004,-487.9847,0.001854269,0.022548858,-0.03844519,-0.0774215,-0.00090424286,0.00046052953,-0.0002578646,-0.014554313,0.009608187,0.02896087,-0.004159545,0.0003361613,-0.010329021,-0.0090063345,1.8964538e-05,487.9847,0.1000061,0.010000001,-487.9847,0.119691014,0.11262505,0.07984453,0.049144283,inf,inf,inf,inf,inf,160,1,1,1,1,3,3,2,1,4,1,1,1,0,3,0,0
1771685326924000,1771685326924000,1771685326924000,1771684928340000,47.3977419,8.5455939,-0.041975744,-0.0010126538,0.004119873,0.004007112,-0.0025302004,-487.9847,0.0019372285,0.022913914,-0.038418215,-0.07714405,-0.00090424286,0.00046052953,-0.0002578646,0.009143333,0.058431998,0.0009555369,-0.004133726,0.00033626848,-0.010304365,-0.0090063345,1.9008734e-05,487.9847,0.1000061,0.010000001,-487.9847,0.12009185,0.11287408,0.0801437,0.04922732,inf,inf,inf,inf,inf,160,1,1,1,1,3,3,2,1,4,1,1,1,0,3,0,0
1771685326932000,1771685326932000,1771685326932000,1771684928340000,47.3977419,8.5455939,-0.041936636,-0.0009489074,0.0038146973,0.004007112,-0.0025302004,-487.9847,0.0021537042,0.023130823,-0.038324106,-0.07679758,-0.00090424286,0.00046052953,-0.0002578646,0.025879549,0.039572384,0.009314622,-0.004107644,0.0003363757,-0.010279443,-0.0090063345,1.9052968e-05,487.9847,0.1000061,0.010000001,-487.9847,0.12049541,0.113123946,0.0804446,0.04931023,inf,inf,inf,inf,inf,160,1,1,1,1,3,3,2,1,4,1,1,1,0,3,0,0
1771685326940000,1771685326940000,1771685326940000,1771684928340000,47.3977419,8.5455939,-0.04189875,-0.00088016444,0.003540039,0.004007112,-0.0025302004,-487.9847,0.0019007152,0.023437299,-0.038377933,-0.07659522,-0.00090424286,0.00046052953,-0.0002578646,-0.0327565,0.050432052,-0.0092783,-0.0040615047,0.00033648298,-0.010234462,-0.0090063345,1.9097239e-05,487.9847,0.1000061,0.010000001,-487.9847,0.120901726,0.11331572,0.08074462,0.049382642,inf,inf,inf,inf,inf,160,1,1,1,1,3,3,2,1,4,1,1,1,0,3,0,0
1771685326948000,1771685326948000,1771685326948000,1771684928340000,47.3977419,8.5455939,-0.04186555,-0.00080864574,0.0032653809,0.004007112,-0.0025302004,-487.9847,0.001311297,0.023270074,-0.038619544,-0.076578975,-0.00090424286,0.00046052953,-0.0002578646,-0.07476855,-0.009107291,-0.03277929,-0.004016417,0.00033659022,-0.010190527,-0.0090063345,1.9141546e-05,487.9847,0.1000061,0.010000001,-487.9847,0.1213108,0.11356712,0.08104551,0.049465314,inf,inf,inf,inf,inf,160,1,1,1,1,3,3,2,1,4,1,1,1,0,3,0,0
1771685326956000,1771685326956000,1771685326956000,1771684928340000,47.3977419,8.5455939,-0.041837126,-0.00073530077,0.002960205,0.004007112,-0.0025302004,-487.9847,0.0010509883,0.023207385,-0.03824269,-0.07594269,-0.00090424286,0.00046052953,-0.0002578646,-0.033586506,0.0036420058,0.044501383,-0.004012827,0.00033669762,-0.010188087,-0.0090063345,1.9185894e-05,487.9847,0.1000061,0.010000001,-487.9847,0.12172263,0.11381937,0.08134649,0.049547855,inf,inf,inf,inf,inf,160,1,1,1,1,3,3,2,1,4,1,1,1,0,3,0,0
1771685326964000,1771685326964000,1771685326964000,1771684928340000,47.3977419,8.5455939,-0.041809805,-0.000661049,0.0026855469,0.004007112,-0.0025302004,-487.9847,0.0011624182,0.02289965,-0.03832552,-0.0757646,-0.00090424286,0.00046052953,-0.0002578646,0.0129287625,-0.027294604,-0.012984964,-0.0040477915,0.000336805,-0.010224198,-0.0090063345,1.923028e-05,487.9847,0.1000061,0.010000001,-487.9847,0.12213724,0.11407244,0.08164654,0.04963027,inf,inf,inf,inf,inf,160,1,1,1,1,3,3,2,1,4,1,1,1,0,3,0,0
1771685326972000,1771685326972000,1771685326972000,1771684928340000,47.3977419,8.5455939,-0.041773416,-0.0006085319,0.002380371,0.004007112,-0.0025302004,-487.9847,0.0009063111,0.022649052,-0.038491637,-0.07569987,-0.00090424286,0.00046052953,-0.0002578646,-0.033968575,-0.017517652,-0.023178754,-0.004052783,0.00033599656,-0.010230329,-0.0090063345,1.8983254e-05,487.9847,0.1000061,0.010000001,-487.9847,0.119887024,0.1127481,0.07998813,0.04918472,inf,inf,inf,inf,inf,160,1,1,1,1,3,3,2,1,4,1,1,1,0,3,0,0
1771685326980000,1771685326980000,1771685326980000,1771684928340000,47.3977419,8.5455939,-0.0417395,-0.0005557809,0.0020751953,0.004007112,-0.0025302004,-487.9847,0.0008842676,0.0221789,-0.038825404,-0.07580038,-0.00090424286,0.00046052953,-0.0002578646,-0.0046493593,-0.04533577,-0.04416564,-0.004071402,0.00033610367,-0.010254562,-0.0090063345,1.9027468e-05,487.9847,0.1000061,0.010000001,-487.9847,0.12028917,0.11299754,0.08028767,0.0492677,inf,inf,inf,inf,inf,160,1,1,1,1,3,3,2,1,4,1,1,1,0,3,0,0
1771685326988000,1771685326988000,1771685326988000,1771684928340000,47.3977419,8.5455939,-0.041706275,-0.0005042628,0.0017700195,0.004007112,-0.0025302004,-487.9847,0.000985188,0.021779748,-0.03938854,-0.07612799,-0.00090424286,0.00046052953,-0.0002578646,0.0107796015,-0.03682739,-0.07286621,-0.004039993,0.00033621094,-0.010228767,-0.0090063345,1.9071726e-05,487.9847,0.1000061,0.010000001,-487.9847,0.120694056,0.11324782,0.08058759,0.04935055,inf,inf,inf,inf,inf,160,1,1,1,1,3,3,2,1,4,1,1,1,0,3,0,0
1771685326996000,1771685326996000,1771685326996000,1771684928340000,47.3977419,8.5455939,-0.04167312,-0.00045046708,0.0014648438,0.004007112,-0.0025302004,-487.9847,0.0011770155,0.021998715,-0.03912998,-0.07562679,-0.00090424286,0.00046052953,-0.0002578646,0.022203784,0.040081814,0.029658897,-0.0040213945,0.00033631813,-0.010215781,-0.0090063345,1.9116012e-05,487.9847,0.1000061,0.010000001,-487.9847,0.12110169,0.1134398,0.080886826,0.04942285,inf,inf,inf,inf,inf,160,1,1,1,1,3,3,2,1,4,1,1,1,0,3,0,0
1771685327004000,1771685327004000,1771685327004000,1771684928340000,47.3977419,8.5455939,-0.04163842,-0.00039169088,0.0011901855,0.004007112,-0.0025302004,-487.9847,0.0016985831,0.02246255,-0.038956635,-0.07520907,-0.00090424286,0.00046052953,-0.0002578646,0.06347718,0.07035491,0.018984543,-0.004033858,0.00033642535,-0.010233838,-0.0090063345,1.916034e-05,487.9847,0.1000061,0.010000001,-487.9847,0.12151209,0.11369161,0.08118652,0.049505454,inf,inf,inf,inf,inf,160,1,1,1,1,3,3,2,1,4,1,1,1,0,3,0,0
1771685327012000,1771685327012000,1771685327012000,1771684928340000,47.3977419,8.5455939,-0.04160178,-0.0003248098,0.00091552734,0.004007112,-0.0025302004,-487.9847,0.001779708,0.023293309,-0.03898856,-0.07499503,-0.00090424286,0.00046052953,-0.0002578646,0.008478557,0.11589071,-0.006696209,-0.0041229916,0.00033653274,-0.010328541,-0.0090063345,1.9204708e-05,487.9847,0.1000061,0.010000001,-487.9847,0.121925235,0.11394426,0.08148665,0.049587935,inf,inf,inf,inf,inf,160,1,1,1,1,3,3,2,1,4,1,1,1,0,3,0,0
1771685327020000,1771685327020000,1771685327020000,1771684928340000,47.3977419,8.5455939,-0.041560505,-0.0002702558,0.000579834,0.004007112,-0.0025302004,-487.9847,0.0013440428,0.023915853,-0.03883988,-0.07462631,-0.00090424286,0.00046052953,-0.0002578646,-0.056312528,0.09219772,0.015944706,-0.0042184447,0.0003366165,-0.010429537,-0.0090063345,1.8970528e-05,487.9847,0.1000061,0.010000001,-487.9847,0.11969228,0.11262505,0.07984932,0.049144275,inf,inf,inf,inf,inf,160,1,1,1,1,3,3,2,1,4,1,1,1,0,3,0,0
1771685327028000,1771685327028000,1771685327028000,1771684928340000,47.3977419,8.5455939,-0.04152453,-0.00021031473,0.0002746582,0.004007112,-0.0025302004,-487.9847,0.00085784635,0.024020584,-0.039070517,-0.07463453,-0.00090424286,0.00046052953,-0.0002578646,-0.06256179,0.027083408,-0.031491738,-0.0041886233,0.00033672384,-0.010405021,-0.0090063345,1.9014731e-05,487.9847,0.1000061,0.010000001,-487.9847,0.12009314,0.11287408,0.08014872,0.049227316,inf,inf,inf,inf,inf,160,1,1,1,1,3,3,2,1,4,1,1,1,0,3,0,0
1771685327036000,1771685327036000,1771685327036000,1771684928340000,47.3977419,8.5455939,-0.041492403,-0.0001465233,-3.0517578e-05,0.004007112,-0.0025302004,-487.9847,0.00066505093,0.024111787,-0.039521072,-0.07486038,-0.00090424286,0.00046052953,-0.0002578646,-0.025779199,0.024989653,-0.059003007,-0.004174853,0.0003359399,-0.010396531,-0.0090063345,1.9048279e-05,487.9847,0.1000061,0.010000001,-487.9847,0.12049448,0.113123946,0.080440216,0.049310226,inf,inf,inf,inf,inf,160,1,1,1,1,3,3,2,1,4,1,1,1,0,3,0,0
1771685327044000,1771685327044000,1771685327044000,1771684928340000,47.3977419,8.5455939,-0.04146373,-7.924689e-05,-0.00030517578,0.004007112,-0.0025302004,-487.9847,0.00034244132,0.0242092,-0.03941992,-0.07452829,-0.00090424286,0.00046052953,-0.0002578646,-0.041947313,0.025405567,0.009813345,-0.0042592143,0.000336047,-0.010485925,-0.0090063345,1.9092548e-05,487.9847,0.1000061,0.010000001,-487.9847,0.12090077,0.11331572,0.08074032,0.04938264,inf,inf,inf,inf,inf,160,1,1,1,1,3,3,2,1,4,1,1,1,0,3,0,0
1771685327052000,1771685327052000,1771685327052000,1771684928340000,47.3977419,8.5455939,-0.041437395,-8.605901e-06,-0.00061035156,0.004007112,-0.0025302004,-487.9847,0.00031560234,0.024217928,-0.039251495,-0.07412698,-0.00090424286,0.00046052953,-0.0002578646,-0.004917478,0.013961451,0.018206423,-0.0042604282,0.00033615413,-0.010492144,-0.0090063345,1.9136853e-05,487.9847,0.1000061,0.010000001,-487.9847,0.12130982,0.11356712,0.08104044,0.04946531,inf,inf,inf,inf,inf,160,1,1,1,1,3,3,2,1,4,1,1,1,0,3,0,0
1771685327060000,1771685327060000,1771685327060000,1771684928340000,47.3977419,8.5455939,-0.041412733,6.5055065e-05,-0.00088500977,0.004007112,-0.0025302004,-487.9847,0.00026013557,0.024379188,-0.039216727,-0.0738575,-0.00090424286,0.00046052953,-0.0002578646,-0.008449847,0.0326828,0.0014845281,-0.0042394223,0.0003362613,-0.010476114,-0.0090063345,1.9181198e-05,487.9847,0.1000061,0.010000001,-487.9847,0.121721625,0.11381937,0.081340656,0.049547855,inf,inf,inf,inf,inf,160,1,1,1,1,3,3,2,1,4,1,1,1,0,3,0,0
1771685327068000,1771685327068000,1771685327068000,1771684928340000,47.3977419,8.5455939,-0.041387502,0.00014311132,-0.0011901855,0.004007112,-0.0025302004,-487.9847,0.00018296257,0.024601867,-0.03910512,-0.07350954,-0.00090424286,0.00046052953,-0.0002578646,-0.011470886,0.040050197,0.011075287,-0.0043066917,0.0003362189,-0.010548338,-0.0090063345,1.9223447e-05,487.9847,0.1000061,0.010000001,-487.9847,0.12213578,0.11407244,0.081638865,0.04963027,inf,inf,inf,inf,inf,160,1,1,1,1,3,3,2,1,4,1,1,1,0,3,0,0
1771685327076000,1771685327076000,1771685327076000,1771684928340000,47.3977419,8.5455939,-0.041368302,0.00019476145,-0.0014953613,0.004007112,-0.0025302004,-487.9847,-0.00019144494,0.024682598,-0.039030187,-0.07321413,-0.00090424286,0.00046052953,-0.0002578646,-0.04832425,0.02524084,0.0062151807,-0.0042852066,0.00033630233,-0.010532102,-0.0090063345,1.8987284e-05,487.9847,0.1000061,0.010000001,-487.9847,0.11988795,0.1127481,0.07998934,0.04918473,inf,inf,inf,inf,inf,160,1,1,1,1,3,3,2,1,4,1,1,1,0,3,0,0
1771685327084000,1771685327084000,1771685327084000,1771684928340000,47.3977419,8.5455939,-0.041351933,0.0002504843,-0.0017700195,0.004007112,-0.0025302004,-487.9847,-0.00029754228,0.024822535,-0.03865314,-0.07261464,-0.00090424286,0.00046052953,-0.0002578646,-0.014743618,0.032233,0.043974254,-0.0042311056,0.0003364095,-0.010482974,-0.0090063345,1.9031493e-05,487.9847,0.1000061,0.010000001,-487.9847,0.1202901,0.11299754,0.0802887,0.049267706,inf,inf,inf,inf,inf,160,1,1,1,1,3,3,2,1,4,1,1,1,0,3,0,0
1771685327092000,1771685327092000,1771685327092000,1771684928340000,47.3977419,8.5455939,-0.04133758,0.0003100851,-0.0020751953,0.004007112,-0.0025302004,-487.9847,-0.00047111756,0.024889061,-0.038419966,-0.07215718,-0.00090424286,0.00046052953,-0.0002578646,-0.023130706,0.022659272,0.025985295,-0.0042452966,0.00033651668,-0.010502119,-0.0090063345,1.9075742e-05,487.9847,0.1000061,0.010000001,-487.9847,0.120695,0.11324782,0.0805885,0.049350552,inf,inf,inf,inf,inf,160,1,1,1,1,3,3,2,1,4,1,1,1,0,3,0,0
1771685327100000,1771685327100000,1771685327100000,1771684928340000,47.3977419,8.5455939,-0.04132658,0.00037487227,-0.0023498535,0.004007112,-0.0025302004,-487.9847,-0.0009524181,0.025326256,-0.03851565,-0.07202282,-0.00090424286,0.00046052953,-0.0002578646,-0.061551068,0.068609364,-0.015254597,-0.0042753415,0.0003366239,-0.0105371,-0.0090063345,1.9120027e-05,487.9847,0.1000061,0.010000001,-487.9847,0.121102646,0.1134398,0.08088885,0.049422853,inf,inf,inf,inf,inf,160,1,1,1,1,3,3,2,1,4,1,1,1,0,3,0,0
1771685327108000,1771685327108000,1771685327108000,1771684928340000,47.3977419,8.5455939,-0.041318063,0.00044267788,-0.0026245117,0.004007112,-0.0025302004,-487.9847,-0.0011645368,0.025318677,-0.038664714,-0.07194037,-0.00090424286,0.00046052953,-0.0002578646,-0.0281748,0.013047047,-0.021926591,-0.0042798724,0.0003358406,-0.010546548,-0.0090063345,1.9153515e-05,487.9847,0.1000061,0.010000001,-487.9847,0.12151067,0.11369161,0.081178725,0.04950546,inf,inf,inf,inf,inf,160,1,1,1,1,3,3,2,1,4,1,1,1,0,3,0,0
1771685327116000,1771685327116000,1771685327116000,1771684928340000,47.3977419,8.5455939,-0.04131182,0.0005123035,-0.00289917,0.004007112,-0.0025302004,-487.9847,-0.0013180537,0.025126807,-0.03846461,-0.071507424,-0.00090424286,0.00046052953,-0.0002578646,-0.020794122,-0.010362523,0.021719372,-0.0042266175,0.00033594758,-0.010501696,-0.0090063345,1.9197869e-05,487.9847,0.1000061,0.010000001,-487.9847,0.12192379,0.11394426,0.08147949,0.04958794,inf,inf,inf,inf,inf,160,1,1,1,1,3,3,2,1,4,1,1,1,0,3,0,0
1771685327124000,1771685327124000,1771685327124000,1771684928340000,47.3977419,8.5455939,-0.041318696,0.0005417803,-0.0031738281,0.004007112,-0.0025302004,-487.9847,-0.001300349,0.025275795,-0.038601287,-0.071427375,-0.00090424286,0.00046052953,-0.0002578646,0.001280568,0.03575448,-0.020642297,-0.0041307104,0.00033603128,-0.010414176,-0.0090063345,1.896391e-05,487.9847,0.1000061,0.010000001,-487.9847,0.11969102,0.11262505,0.07984235,0.049144283,inf,inf,inf,inf,inf,160,1,1,1,1,3,3,2,1,4,1,1,1,0,3,0,0
1771685327132000,1771685327132000,1771685327132000,1771684928340000,47.3977419,8.5455939,-0.041325733,0.0005764268,-0.0034484863,0.004007112,-0.0025302004,-487.9847,-0.0012526634,0.025538305,-0.03847913,-0.07108669,-0.00090424286,0.00046052953,-0.0002578646,0.0050589177,0.04949026,0.011719762,-0.004144652,0.00033613833,-0.010436185,-0.0090063345,1.9008105e-05,487.9847,0.1000061,0.010000001,-487.9847,0.12009184,0.11287408,0.080142476,0.049227316,inf,inf,inf,inf,inf,160,1,1,1,1,3,3,2,1,4,1,1,1,0,3,0,0
1771685327140000,1771685327140000,1771685327140000,1771684928340000,47.3977419,8.5455939,-0.041333657,0.0006179563,-0.0037231445,0.004007112,-0.0025302004,-487.9847,-0.0013739315,0.025938038,-0.038739976,-0.0711272,-0.00090424286,0.00046052953,-0.0002578646,-0.01602861,0.06619742,-0.036146954,-0.0041695475,0.00033624537,-0.010469013,-0.0090063345,1.9052331e-05,487.9847,0.1000061,0.010000001,-487.9847,0.120495394,0.113123946,0.080443546,0.049310226,inf,inf,inf,inf,inf,160,1,1,1,1,3,3,2,1,4,1,1,1,0,3,0,0
1771685327148000,1771685327148000,1771685327148000,1771684928340000,47.3977419,8.5455939,-0.041342605,0.0006647907,-0.0039978027,0.004007112,-0.0025302004,-487.9847,-0.0013576794,0.025941031,-0.038488206,-0.07064933,-0.00090424286,0.00046052953,-0.0002578646,0.001194181,0.016169284,0.027793458,-0.0041042143,0.00033635256,-0.010411477,-0.0090063345,1.9096602e-05,487.9847,0.1000061,0.010000001,-487.9847,0.12090171,0.11331572,0.08074288,0.04938264,inf,inf,inf,inf,inf,160,1,1,1,1,3,3,2,1,4,1,1,1,0,3,0,0
1771685327156000,1771685327156000,1771685327156000,1771684928340000,47.3977419,8.5455939,-0.04135173,0.0007144828,-0.004272461,0.004007112,-0.0025302004,-487.9847,-0.0012696154,0.025788417,-0.03885457,-0.0707882,-0.00090424286,0.00046052953,-0.0002578646,0.010208427,-0.003706398,-0.04946021,-0.0040995125,0.00033645972,-0.010414436,-0.0090063345,1.9140907e-05,487.9847,0.1000061,0.010000001,-487.9847,0.12131077,0.11356712,0.0810429,0.049465314,inf,inf,inf,inf,inf,160,1,1,1,1,3,3,2,1,4,1,1,1,0,3,0,0
1771685327164000,1771685327164000,1771685327164000,1771684928340000,47.3977419,8.5455939,-0.04136098,0.00076632795,-0.004547119,0.004007112,-0.0025302004,-487.9847,-0.0013422205,0.025638085,-0.039340936,-0.07104578,-0.00090424286,0.00046052953,-0.0002578646,-0.009839779,-0.003828956,-0.06444705,-0.0041760174,0.00033656694,-0.010498466,-0.0090063345,1.918525e-05,487.9847,0.1000061,0.010000001,-487.9847,0.121722594,0.11381937,0.08134355,0.04954786,inf,inf,inf,inf,inf,160,1,1,1,1,3,3,2,1,4,1,1,1,0,3,0,0
1771685327172000,1771685327172000,1771685327172000,1771684928340000,47.3977419,8.5455939,-0.041371085,0.0008204161,-0.0048217773,0.004007112,-0.0025302004,-487.9847,-0.0015103588,0.025466366,-0.039693493,-0.071168385,-0.00090424286,0.00046052953,-0.0002578646,-0.021919152,-0.006878187,-0.04770746,-0.0040959613,0.00033578422,-0.010425801,-0.0090063345,1.9218718e-05,487.9847,0.1000061,0.010000001,-487.9847,0.12213472,0.11407244,0.08163426,0.049630277,inf,inf,inf,inf,inf,160,1,1,1,1,3,3,2,1,4,1,1,1,0,3,0,0
1771685327180000,1771685327180000,1771685327180000,1771684928340000,47.3977419,8.5455939,-0.04138309,0.00084713317,-0.0050964355,0.004007112,-0.0025302004,-487.9847,-0.0014584558,0.025605407,-0.039816048,-0.071070276,-0.00090424286,0.00046052953,-0.0002578646,0.0056642424,0.034872685,-0.019441823,-0.004056161,0.00033586746,-0.010393577,-0.0090063345,1.89827e-05,487.9847,0.1000061,0.010000001,-487.9847,0.119887024,0.1127481,0.07998531,0.04918473,inf,inf,inf,inf,inf,160,1,1,1,1,3,3,2,1,4,1,1,1,0,3,0,0
1771685327188000,1771685327188000,1771685327188000,1771684928340000,47.3977419,8.5455939,-0.041395437,0.00087981886,-0.0053710938,0.004007112,-0.0025302004,-487.9847,-0.0014282078,0.025900206,-0.039986372,-0.07101852,-0.00090424286,0.00046052953,-0.0002578646,0.0029970068,0.053879064,-0.025385989,-0.00410411,0.00033597444,-0.010448709,-0.0090063345,1.9026907e-05,487.9847,0.1000061,0.010000001,-487.9847,0.120289154,0.11299754,0.08028582,0.0492677,inf,inf,inf,inf,inf,160,1,1,1,1,3,3,2,1,4,1,1,1,0,3,0,0
1771685327196000,1771685327196000,1771685327196000,1771684928340000,47.3977419,8.5455939,-0.0414077,0.00091772387,-0.005645752,0.004007112,-0.0025302004,-487.9847,-0.0014176138,0.02587296,-0.04033008,-0.07113879,-0.00090424286,0.00046052953,-0.0002578646,0.0005746419,0.013164672,-0.047031786,-0.0041416422,0.0003360815,-0.010493299,-0.0090063345,1.9071153e-05,487.9847,0.1000061,0.010000001,-487.9847,0.120694034,0.11324782,0.08058512,0.04935055,inf,inf,inf,inf,inf,160,1,1,1,1,3,3,2,1,4,1,1,1,0,3,0,0
1771685327204000,1771685327204000,1771685327204000,1771684928340000,47.3977419,8.5455939,-0.041421168,0.00095930556,-0.00592041,0.004007112,-0.0025302004,-487.9847,-0.0016113964,0.025952691,-0.040462073,-0.07104114,-0.00090424286,0.00046052953,-0.0002578646,-0.024941852,0.026095388,-0.020699574,-0.0041261744,0.00033618856,-0.010484769,-0.0090063345,1.9115436e-05,487.9847,0.1000061,0.010000001,-487.9847,0.121101655,0.1134398,0.08088468,0.04942285,inf,inf,inf,inf,inf,160,1,1,1,1,3,3,2,1,4,1,1,1,0,3,0,0
1771685327212000,1771685327212000,1771685327212000,1771684928340000,47.3977419,8.5455939,-0.041435502,0.0010053492,-0.0061950684,0.004007112,-0.0025302004,-487.9847,-0.0014211007,0.02615007,-0.04066059,-0.07100911,-0.00090424286,0.00046052953,-0.0002578646,0.023102121,0.04036766,-0.028984154,-0.0040392345,0.00033629566,-0.010404646,-0.0090063345,1.9159756e-05,487.9847,0.1000061,0.010000001,-487.9847,0.12151203,0.11369161,0.08118487,0.04950546,inf,inf,inf,inf,inf,160,1,1,1,1,3,3,2,1,4,1,1,1,0,3,0,0
1771685327220000,1771685327220000,1771685327220000,1771684928340000,47.3977419,8.5455939,-0.04144809,0.0010584665,-0.0064697266,0.004007112,-0.0025302004,-487.9847,-0.0011752488,0.026701936,-0.04068609,-0.070803255,-0.00090424286,0.00046052953,-0.0002578646,0.030074423,0.08425563,-0.00732718,-0.004073947,0.00033640277,-0.010446059,-0.0090063345,1.9204112e-05,487.9847,0.1000061,0.010000001,-487.9847,0.12192518,0.11394426,0.08148514,0.049587943,inf,inf,inf,inf,inf,160,1,1,1,1,3,3,2,1,4,1,1,1,0,3,0,0
1771685327228000,1771685327228000,1771685327228000,1771684928340000,47.3977419,8.5455939,-0.04146997,0.0010814243,-0.0067443848,0.004007112,-0.0025302004,-487.9847,-0.001148159,0.027057718,-0.040942654,-0.07083614,-0.00090424286,0.00046052953,-0.0002578646,0.0031627493,0.06303931,-0.036741603,-0.0040756953,0.00033648734,-0.010454387,-0.0090063345,1.8969977e-05,487.9847,0.1000061,0.010000001,-487.9847,0.11969226,0.11262505,0.07984709,0.049144283,inf,inf,inf,inf,inf,160,1,1,1,1,3,3,2,1,4,1,1,1,0,3,0,0
1771685327236000,1771685327236000,1771685327236000,1771684928340000,47.3977419,8.5455939,-0.04149112,0.001109889,-0.0069885254,0.004007112,-0.0025302004,-487.9847,-0.0009065384,0.02701373,-0.041008633,-0.07067763,-0.00090424286,0.00046052953,-0.0002578646,0.02999773,0.012570267,-0.012873205,-0.004098092,0.00033659456,-0.010482954,-0.0090063345,1.9014175e-05,487.9847,0.1000061,0.010000001,-487.9847,0.1200931,0.11287408,0.080145456,0.049227323,inf,inf,inf,inf,inf,160,1,1,1,1,3,3,2,1,4,1,1,1,0,3,0,0
1771685327244000,1771685327244000,1771685327244000,1771684928340000,47.3977419,8.5455939,-0.041509487,0.0011431361,-0.0072631836,0.004007112,-0.0025302004,-487.9847,-0.00079960114,0.027024623,-0.04104153,-0.07048538,-0.00090424286,0.00046052953,-0.0002578646,0.0129036205,0.018757785,-0.008694361,-0.004044893,0.0003358109,-0.010435805,-0.0090063345,1.90477e-05,487.9847,0.1000061,0.010000001,-487.9847,0.12049443,0.113123946,0.080435306,0.049310233,inf,inf,inf,inf,inf,160,1,1,1,1,3,3,2,1,4,1,1,1,0,3,0,0
1771685327252000,1771685327252000,1771685327252000,1771684928340000,47.3977419,8.5455939,-0.04152609,0.0011809106,-0.007537842,0.004007112,-0.0025302004,-487.9847,-0.00043353756,0.02715136,-0.041092426,-0.07030757,-0.00090424286,0.00046052953,-0.0002578646,0.045317143,0.032778915,-0.011015217,-0.003990182,0.00033591787,-0.0103855785,-0.0090063345,1.9091965e-05,487.9847,0.1000061,0.010000001,-487.9847,0.12090071,0.11331572,0.08073521,0.049382646,inf,inf,inf,inf,inf,160,1,1,1,1,3,3,2,1,4,1,1,1,0,3,0,0
1771685327260000,1771685327260000,1771685327260000,1771684928340000,47.3977419,8.5455939,-0.041541148,0.0012243742,-0.0078125,0.004007112,-0.0025302004,-487.9847,-0.00038617075,0.027434703,-0.041172516,-0.07015855,-0.00090424286,0.00046052953,-0.0002578646,0.0055030915,0.05190606,-0.0146189695,-0.0039442796,0.00033602485,-0.010344043,-0.0090063345,1.9136267e-05,487.9847,0.1000061,0.010000001,-487.9847,0.121309735,0.11356712,0.08103563,0.049465314,inf,inf,inf,inf,inf,160,1,1,1,1,3,3,2,1,4,1,1,1,0,3,0,0
1771685327268000,1771685327268000,1771685327268000,1771684928340000,47.3977419,8.5455939,-0.041556142,0.0012741594,-0.008056641,0.004007112,-0.0025302004,-487.9847,-0.00034471176,0.027992249,-0.041654646,-0.07041125,-0.00090424286,0.00046052953,-0.0002578646,0.0048091216,0.08592444,-0.06482936,-0.004010151,0.00033598294,-0.010414163,-0.0090063345,1.9178493e-05,487.9847,0.1000061,0.010000001,-487.9847,0.12172111,0.11381937,0.081333674,0.049547855,inf,inf,inf,inf,inf,160,1,1,1,1,3,3,2,1,4,1,1,1,0,3,0,0
1771685327276000,1771685327276000,1771685327276000,1771684928340000,47.3977419,8.5455939,-0.041570857,0.0013334153,-0.008331299,0.004007112,-0.0025302004,-487.9847,-0.00027637632,0.028720086,-0.042074483,-0.07060141,-0.00090424286,0.00046052953,-0.0002578646,0.008190306,0.106776595,-0.0569988,-0.0039658905,0.00033608996,-0.010374501,-0.0090063345,1.9222864e-05,487.9847,0.1000061,0.010000001,-487.9847,0.122135654,0.11407244,0.08163475,0.04963027,inf,inf,inf,inf,inf,160,1,1,1,1,3,3,2,1,4,1,1,1,0,3,0,0
1771685327284000,1771685327284000,1771685327284000,1771684928340000,47.3977419,8.5455939,-0.04159405,0.0013680373,-0.008605957,0.004007112,-0.0025302004,-487.9847,-0.00039296105,0.028752657,-0.042269595,-0.070567995,-0.00090424286,0.00046052953,-0.0002578646,-0.0146851335,0.022897616,-0.029673798,-0.0039357813,0.0003361742,-0.010348779,-0.0090063345,1.8986768e-05,487.9847,0.1000061,0.010000001,-487.9847,0.11988789,0.1127481,0.0799852,0.049184725,inf,inf,inf,inf,inf,160,1,1,1,1,3,3,2,1,4,1,1,1,0,3,0,0
1771685327292000,1771685327292000,1771685327292000,1771684928340000,47.3977419,8.5455939,-0.041619178,0.0014063057,-0.008880615,0.004007112,-0.0025302004,-487.9847,-0.00069165236,0.028581522,-0.0426239,-0.07069363,-0.00090424286,0.00046052953,-0.0002578646,-0.0374346,-0.0030698664,-0.049507707,-0.003911284,0.00033628123,-0.010328198,-0.0090063345,1.9030973e-05,487.9847,0.1000061,0.010000001,-487.9847,0.120290026,0.11299754,0.08028533,0.0492677,inf,inf,inf,inf,inf,160,1,1,1,1,3,3,2,1,4,1,1,1,0,3,0,0
1771685327300000,1771685327300000,1771685327300000,1771684928340000,47.3977419,8.5455939,-0.041645247,0.0014481429,-0.009124756,0.004007112,-0.0025302004,-487.9847,-0.0007128774,0.028570531,-0.042906187,-0.07074716,-0.00090424286,0.00046052953,-0.0002578646,-0.002731996,0.016456166,-0.040441748,-0.003901008,0.00033638827,-0.01032164,-0.0090063345,1.9075214e-05,487.9847,0.1000061,0.010000001,-487.9847,0.12069491,0.11324782,0.08058446,0.04935055,inf,inf,inf,inf,inf,160,1,1,1,1,3,3,2,1,4,1,1,1,0,3,0,0
1771685327308000,1771685327308000,1771685327308000,1771684928340000,47.3977419,8.5455939,-0.041671798,0.0014938838,-0.009399414,0.004007112,-0.0025302004,-487.9847,-0.0010310468,0.02865865,-0.0431163,-0.07072447,-0.00090424286,0.00046052953,-0.0002578646,-0.0399809,0.028465735,-0.03149034,-0.003975126,0.00033560614,-0.010399284,-0.0090063345,1.9108713e-05,487.9847,0.1000061,0.010000001,-487.9847,0.12110022,0.1134398,0.08087622,0.04942285,inf,inf,inf,inf,inf,160,1,1,1,1,3,3,2,1,4,1,1,1,0,3,0,0
1771685327316000,1771685327316000,1771685327316000,1771684928340000,47.3977419,8.5455939,-0.041700188,0.0015443574,-0.009674072,0.004007112,-0.0025302004,-487.9847,-0.001119416,0.02864876,-0.042881493,-0.07025692,-0.00090424286,0.00046052953,-0.0002578646,-0.011237654,0.015743436,0.02418924,-0.0040292935,0.00033571295,-0.010457688,-0.0090063345,1.915302e-05,487.9847,0.1000061,0.010000001,-487.9847,0.12151055,0.11369161,0.08117768,0.049505457,inf,inf,inf,inf,inf,160,1,1,1,1,3,3,2,1,4,1,1,1,0,3,0,0
1771685327324000,1771685327324000,1771685327324000,1771684928340000,47.3977419,8.5455939,-0.041728765,0.0015979223,-0.009918213,0.004007112,-0.0025302004,-487.9847,-0.0011323645,0.028561579,-0.042790905,-0.069933586,-0.00090424286,0.00046052953,-0.0002578646,-0.001795408,0.005619575,0.0062240283,-0.004056955,0.0003358198,-0.0104894,-0.0090063345,1.9197367e-05,487.9847,0.1000061,0.010000001,-487.9847,0.121923655,0.11394426,0.081479035,0.04958794,inf,inf,inf,inf,inf,160,1,1,1,1,3,3,2,1,4,1,1,1,0,3,0,0
1771685327332000,1771685327332000,1771685327332000,1771684928340000,47.3977419,8.5455939,-0.041766334,0.0016322574,-0.010192871,0.004007112,-0.0025302004,-487.9847,-0.0014997285,0.0287236,-0.042837955,-0.069750205,-0.00090424286,0.00046052953,-0.0002578646,-0.045915205,0.039373495,-0.011723488,-0.004097632,0.00033590395,-0.010533942,-0.0090063345,1.8963408e-05,487.9847,0.1000061,0.010000001,-487.9847,0.11969092,0.11262505,0.07984203,0.04914428,inf,inf,inf,inf,inf,160,1,1,1,1,3,3,2,1,4,1,1,1,0,3,0,0
1771685327340000,1771685327340000,1771685327340000,1771684928340000,47.3977419,8.5455939,-0.041806147,0.0016704497,-0.010437012,0.004007112,-0.0025302004,-487.9847,-0.0016795993,0.028528452,-0.042981915,-0.06966372,-0.00090424286,0.00046052953,-0.0002578646,-0.02247003,-0.0057867016,-0.023753846,-0.0040821694,0.00033601088,-0.010521915,-0.0090063345,1.9007595e-05,487.9847,0.1000061,0.010000001,-487.9847,0.12009172,0.11287408,0.080141865,0.04922732,inf,inf,inf,inf,inf,160,1,1,1,1,3,3,2,1,4,1,1,1,0,3,0,0
1771685327348000,1771685327348000,1771685327348000,1771684928340000,47.3977419,8.5455939,-0.0418455,0.0017119934,-0.01071167,0.004007112,-0.0025302004,-487.9847,-0.0014281152,0.028535245,-0.04302976,-0.06948108,-0.00090424286,0.00046052953,-0.0002578646,0.03146131,0.018955763,-0.011658295,-0.004125466,0.00033611796,-0.01056847,-0.0090063345,1.9051826e-05,487.9847,0.1000061,0.010000001,-487.9847,0.12049528,0.113123946,0.080442384,0.04931023,inf,inf,inf,inf,inf,160,1,1,1,1,3,3,2,1,4,1,1,1,0,3,0,0
1771685327356000,1771685327356000,1771685327356000,1771684928340000,47.3977419,8.5455939,-0.041882034,0.0017589738,-0.010955811,0.004007112,-0.0025302004,-487.9847,-0.0011627376,0.02877098,-0.043091178,-0.06930897,-0.00090424286,0.00046052953,-0.0002578646,0.03321484,0.047085017,-0.013392418,-0.0042287004,0.00033622494,-0.010674789,-0.0090063345,1.9096085e-05,487.9847,0.1000061,0.010000001,-487.9847,0.120901585,0.11331572,0.08074256,0.049382642,inf,inf,inf,inf,inf,160,1,1,1,1,3,3,2,1,4,1,1,1,0,3,0,0
1771685327364000,1771685327364000,1771685327364000,1771684928340000,47.3977419,8.5455939,-0.041917406,0.001810401,-0.011199951,0.004007112,-0.0025302004,-487.9847,-0.0011467215,0.02861994,-0.042967632,-0.06895198,-0.00090424286,0.00046052953,-0.0002578646,0.0020536748,-0.0017348292,0.009808688,-0.004240679,0.00033633193,-0.0106896795,-0.0090063345,1.9140381e-05,487.9847,0.1000061,0.010000001,-487.9847,0.121310644,0.11356712,0.081043385,0.049465314,inf,inf,inf,inf,inf,160,1,1,1,1,3,3,2,1,4,1,1,1,0,3,0,0
1771685327372000,1771685327372000,1771685327372000,1771684928340000,47.3977419,8.5455939,-0.041951854,0.001864561,-0.011444092,0.004007112,-0.0025302004,-487.9847,-0.0010048078,0.028565018,-0.042767737,-0.06851876,-0.00090424286,0.00046052953,-0.0002578646,0.01780331,0.009814905,0.019431112,-0.004234526,0.00033643906,-0.010686269,-0.0090063345,1.9184721e-05,487.9847,0.1000061,0.010000001,-487.9847,0.12172247,0.11381937,0.08134411,0.04954786,inf,inf,inf,inf,inf,160,1,1,1,1,3,3,2,1,4,1,1,1,0,3,0,0
1771685327380000,1771685327380000,1771685327380000,1771684928340000,47.3977419,8.5455939,-0.041983675,0.0019228267,-0.011688232,0.004007112,-0.0025302004,-487.9847,-0.0012348499,0.02851591,-0.04293288,-0.068450704,-0.00090424286,0.00046052953,-0.0002578646,-0.029213743,0.010064381,-0.026121734,-0.0042369706,0.00033565675,-0.010691296,-0.0090063345,1.9218178e-05,487.9847,0.1000061,0.010000001,-487.9847,0.122134596,0.11407244,0.081636116,0.049630277,inf,inf,inf,inf,inf,160,1,1,1,1,3,3,2,1,4,1,1,1,0,3,0,0
1771685327388000,1771685327388000,1771685327388000,1771684928340000,47.3977419,8.5455939,-0.04201532,0.0019644354,-0.011932373,0.004007112,-0.0025302004,-487.9847,-0.001458546,0.028354341,-0.04312247,-0.0683975,-0.00090424286,0.00046052953,-0.0002578646,-0.028691502,-0.0014962992,-0.03033364,-0.004234379,0.0003357403,-0.010691145,-0.0090063345,1.8982137e-05,487.9847,0.1000061,0.010000001,-487.9847,0.11988689,0.1127481,0.07998704,0.049184732,inf,inf,inf,inf,inf,160,1,1,1,1,3,3,2,1,4,1,1,1,0,3,0,0
1771685327396000,1771685327396000,1771685327396000,1771684928340000,47.3977419,8.5455939,-0.042047225,0.0020090595,-0.012176514,0.004007112,-0.0025302004,-487.9847,-0.0014044874,0.028190253,-0.043460988,-0.06849381,-0.00090424286,0.00046052953,-0.0002578646,0.006053716,-0.00231841,-0.048841346,-0.0042258273,0.00033584717,-0.010684643,-0.0090063345,1.9026338e-05,487.9847,0.1000061,0.010000001,-487.9847,0.12028902,0.11299754,0.08028667,0.049267706,inf,inf,inf,inf,inf,160,1,1,1,1,3,3,2,1,4,1,1,1,0,3,0,0
1771685327404000,1771685327404000,1771685327404000,1771684928340000,47.3977419,8.5455939,-0.042076893,0.002056364,-0.012420654,0.004007112,-0.0025302004,-487.9847,-0.00085491495,0.028045863,-0.043684706,-0.06847595,-0.00090424286,0.00046052953,-0.0002578646,0.0680222,-0.000347075,-0.034385823,-0.00419382,0.0003359542,-0.010654537,-0.0090063345,1.9070587e-05,487.9847,0.1000061,0.010000001,-487.9847,0.1206939,0.11324782,0.080586754,0.049350556,inf,inf,inf,inf,inf,160,1,1,1,1,3,3,2,1,4,1,1,1,0,3,0,0
1771685327412000,1771685327412000,1771685327412000,1771684928340000,47.3977419,8.5455939,-0.042103592,0.0021059772,-0.012634277,0.004007112,-0.0025302004,-487.9847,-0.000817235,0.02777833,-0.043703414,-0.068250686,-0.00090424286,0.00046052953,-0.0002578646,0.0040704976,-0.016218739,-0.008768401,-0.004194036,0.00033606106,-0.010656549,-0.0090063345,1.911486e-05,487.9847,0.1000061,0.010000001,-487.9847,0.12110153,0.1134398,0.08088706,0.049422856,inf,inf,inf,inf,inf,160,1,1,1,1,3,3,2,1,4,1,1,1,0,3,0,0
1771685327420000,1771685327420000,1771685327420000,1771684928340000,47.3977419,8.5455939,-0.042129263,0.0021589072,-0.012878418,0.004007112,-0.0025302004,-487.9847,-0.0005239225,0.02797119,-0.043587603,-0.067892596,-0.00090424286,0.00046052953,-0.0002578646,0.03605137,0.040864844,0.008150469,-0.0042220964,0.00033616804,-0.010686303,-0.0090063345,1.9159175e-05,487.9847,0.1000061,0.010000001,-487.9847,0.12151192,0.11369161,0.081188716,0.04950547,inf,inf,inf,inf,inf,160,1,1,1,1,3,3,2,1,4,1,1,1,0,3,0,0
1771685327428000,1771685327428000,1771685327428000,1771684928340000,47.3977419,8.5455939,-0.042152736,0.002218068,-0.013122559,0.004007112,-0.0025302004,-487.9847,-0.0003316582,0.028336238,-0.043759737,-0.06782402,-0.00090424286,0.00046052953,-0.0002578646,0.023444679,0.061936542,-0.02774177,-0.0042086286,0.00033627506,-0.010674426,-0.0090063345,1.920353e-05,487.9847,0.1000061,0.010000001,-487.9847,0.12192507,0.11394426,0.08149054,0.049587954,inf,inf,inf,inf,inf,160,1,1,1,1,3,3,2,1,4,1,1,1,0,3,0,0
1771685327436000,1771685327436000,1771685327436000,1771684928340000,47.3977419,8.5455939,-0.04217356,0.0022553103,-0.013336182,0.004007112,-0.0025302004,-487.9847,-0.00034177402,0.028667698,-0.04419441,-0.06800469,-0.00090424286,0.00046052953,-0.0002578646,-0.0020347023,0.060855992,-0.06189849,-0.004233475,0.00033635928,-0.010700757,-0.0090063345,1.8969307e-05,487.9847,0.1000061,0.010000001,-487.9847,0.119692095,0.11262505,0.07985304,0.049144294,inf,inf,inf,inf,inf,160,1,1,1,1,3,3,2,1,4,1,1,1,0,3,0,0
1771685327444000,1771685327444000,1771685327444000,1771684928340000,47.3977419,8.5455939,-0.04219406,0.002298582,-0.013549805,0.004007112,-0.0025302004,-487.9847,-9.7519216e-05,0.02887796,-0.043926127,-0.06748443,-0.00090424286,0.00046052953,-0.0002578646,0.029741129,0.045276538,0.026108695,-0.0042630187,0.00033557677,-0.010731397,-0.0090063345,1.900284e-05,487.9847,0.1000061,0.010000001,-487.9847,0.12009076,0.11287408,0.08014419,0.04922733,inf,inf,inf,inf,inf,160,1,1,1,1,3,3,2,1,4,1,1,1,0,3,0,0
1771685327452000,1771685327452000,1771685327452000,1771684928340000,47.3977419,8.5455939,-0.04221121,0.002347258,-0.013763428,0.004007112,-0.0025302004,-487.9847,0.00015139356,0.028971586,-0.043630395,-0.066938646,-0.00090424286,0.00046052953,-0.0002578646,0.030355388,0.030184304,0.029672867,-0.004267357,0.00033568358,-0.010737615,-0.0090063345,1.9047064e-05,487.9847,0.1000061,0.010000001,-487.9847,0.12049431,0.113123946,0.08044454,0.04931024,inf,inf,inf,inf,inf,160,1,1,1,1,3,3,2,1,4,1,1,1,0,3,0,0
1771685327460000,1771685327460000,1771685327460000,1771684928340000,47.3977419,8.5455939,-0.04222834,0.0024004064,-0.013977051,0.004007112,-0.0025302004,-487.9847,0.00010848795,0.029100018,-0.043818306,-0.06687334,-0.00090424286,0.00046052953,-0.0002578646,-0.0060888357,0.03403753,-0.030829104,-0.004244011,0.00033579042,-0.010716064,-0.0090063345,1.909132e-05,487.9847,0.1000061,0.010000001,-487.9847,0.120900616,0.11331572,0.080744855,0.049382653,inf,inf,inf,inf,inf,160,1,1,1,1,3,3,2,1,4,1,1,1,0,3,0,0
1771685327468000,1771685327468000,1771685327468000,1771684928340000,47.3977419,8.5455939,-0.0422465,0.0024599535,-0.014190674,0.004007112,-0.0025302004,-487.9847,-8.526726e-05,0.029388703,-0.044069406,-0.06687327,-0.00090424286,0.00046052953,-0.0002578646,-0.024814993,0.053526636,-0.038596332,-0.004268696,0.00033574874,-0.01074246,-0.0090063345,1.913351e-05,487.9847,0.1000061,0.010000001,-487.9847,0.12130927,0.11356712,0.081042655,0.04946532,inf,inf,inf,inf,inf,160,1,1,1,1,3,3,2,1,4,1,1,1,0,3,0,0
1771685327476000,1771685327476000,1771685327476000,1771684928340000,47.3977419,8.5455939,-0.042266432,0.0025250264,-0.014404297,0.004007112,-0.0025302004,-487.9847,-0.00037340622,0.029510042,-0.043910194,-0.06646496,-0.00090424286,0.00046052953,-0.0002578646,-0.0365883,0.03213511,0.012820586,-0.0042820256,0.00033585553,-0.010757259,-0.0090063345,1.9177834e-05,487.9847,0.1000061,0.010000001,-487.9847,0.12172108,0.11381937,0.081342876,0.049547866,inf,inf,inf,inf,inf,160,1,1,1,1,3,3,2,1,4,1,1,1,0,3,0,0
1771685327484000,1771685327484000,1771685327484000,1771684928340000,47.3977419,8.5455939,-0.042288117,0.0025939455,-0.01461792,0.004007112,-0.0025302004,-487.9847,-0.00044688294,0.029450849,-0.043900482,-0.06620821,-0.00090424286,0.00046052953,-0.0002578646,-0.009729539,0.009110603,-0.005741603,-0.0042899805,0.0003359624,-0.010766588,-0.0090063345,1.92222e-05,487.9847,0.1000061,0.010000001,-487.9847,0.122135654,0.11407244,0.081643604,0.049630284,inf,inf,inf,inf,inf,160,1,1,1,1,3,3,2,1,4,1,1,1,0,3,0,0
1771685327492000,1771685327492000,1771685327492000,1771684928340000,47.3977419,8.5455939,-0.042306963,0.0026363558,-0.014831543,0.004007112,-0.0025302004,-487.9847,-0.0004997458,0.029063923,-0.04392161,-0.06597857,-0.00090424286,0.00046052953,-0.0002578646,-0.00752362,-0.028743923,-0.010602175,-0.004283036,0.00033604645,-0.010760927,-0.0090063345,1.8985966e-05,487.9847,0.1000061,0.010000001,-487.9847,0.11988779,0.1127481,0.07999414,0.049184736,inf,inf,inf,inf,inf,160,1,1,1,1,3,3,2,1,4,1,1,1,0,3,0,0
1771685327500000,1771685327500000,1771685327500000,1771684928340000,47.3977419,8.5455939,-0.042326838,0.002680125,-0.015045166,0.004007112,-0.0025302004,-487.9847,-0.0006811917,0.028818643,-0.043962993,-0.06577143,-0.00090424286,0.00046052953,-0.0002578646,-0.02356592,-0.011567957,-0.012983567,-0.00433522,0.00033615335,-0.010814032,-0.0090063345,1.9030165e-05,487.9847,0.1000061,0.010000001,-487.9847,0.12028995,0.11299754,0.08029394,0.049267713,inf,inf,inf,inf,inf,160,1,1,1,1,3,3,2,1,4,1,1,1,0,3,0,0
1771685327508000,1771685327508000,1771685327508000,1771684928340000,47.3977419,8.5455939,-0.04234764,0.0027273588,-0.015258789,0.004007112,-0.0025302004,-487.9847,-0.0007684777,0.028891657,-0.044086184,-0.06564831,-0.00090424286,0.00046052953,-0.0002578646,-0.011761847,0.027701363,-0.023062339,-0.0043981457,0.00033626033,-0.010877803,-0.0090063345,1.9074407e-05,487.9847,0.1000061,0.010000001,-487.9847,0.12069487,0.11324782,0.08059408,0.04935056,inf,inf,inf,inf,inf,160,1,1,1,1,3,3,2,1,4,1,1,1,0,3,0,0
1771685327516000,1771685327516000,1771685327516000,1771684928340000,47.3977419,8.5455939,-0.042372067,0.0027802896,-0.015472412,0.004007112,-0.0025302004,-487.9847,-0.0007960804,0.02918192,-0.043955293,-0.065270275,-0.00090424286,0.00046052953,-0.0002578646,-0.0036935823,0.05435787,0.008728354,-0.004409801,0.00033547863,-0.010890234,-0.0090063345,1.9107894e-05,487.9847,0.1000061,0.010000001,-487.9847,0.1211002,0.1134398,0.08088458,0.049422864,inf,inf,inf,inf,inf,160,1,1,1,1,3,3,2,1,4,1,1,1,0,3,0,0
1771685327524000,1771685327524000,1771685327524000,1771684928340000,47.3977419,8.5455939,-0.042395145,0.0028393816,-0.015686035,0.004007112,-0.0025302004,-487.9847,-0.00056749413,0.029410563,-0.043748703,-0.06481888,-0.00090424286,0.00046052953,-0.0002578646,0.028349178,0.046162184,0.018332617,-0.0044153463,0.00033558533,-0.010896431,-0.0090063345,1.9152198e-05,487.9847,0.1000061,0.010000001,-487.9847,0.12151057,0.11369161,0.08118444,0.049505472,inf,inf,inf,inf,inf,160,1,1,1,1,3,3,2,1,4,1,1,1,0,3,0,0
1771685327532000,1771685327532000,1771685327532000,1771684928340000,47.3977419,8.5455939,-0.04241798,0.0029025185,-0.01586914,0.004007112,-0.0025302004,-487.9847,-0.00071324245,0.029160094,-0.043860767,-0.064688444,-0.00090424286,0.00046052953,-0.0002578646,-0.018427499,-0.0142081035,-0.021360347,-0.004389007,0.00033569205,-0.010870683,-0.0090063345,1.919654e-05,487.9847,0.1000061,0.010000001,-487.9847,0.1219237,0.11394426,0.08148533,0.04958795,inf,inf,inf,inf,inf,160,1,1,1,1,3,3,2,1,4,1,1,1,0,3,0,0
1771685327540000,1771685327540000,1771685327540000,1771684928340000,47.3977419,8.5455939,-0.04244041,0.0029317262,-0.016082764,0.004007112,-0.0025302004,-487.9847,-0.0012171197,0.028929062,-0.043942653,-0.06452933,-0.00090424286,0.00046052953,-0.0002578646,-0.06354312,-0.008360018,-0.018419696,-0.004406486,0.00033577593,-0.010888696,-0.0090063345,1.8962499e-05,487.9847,0.1000061,0.010000001,-487.9847,0.11969088,0.11262505,0.07984804,0.049144294,inf,inf,inf,inf,inf,160,1,1,1,1,3,3,2,1,4,1,1,1,0,3,0,0
1771685327548000,1771685327548000,1771685327548000,1771684928340000,47.3977419,8.5455939,-0.042465057,0.002964587,-0.016296387,0.004007112,-0.0025302004,-487.9847,-0.001149332,0.028868686,-0.0438427,-0.0641906,-0.00090424286,0.00046052953,-0.0002578646,0.007946726,0.012413451,0.0044694166,-0.004369882,0.00033588274,-0.010852264,-0.0090063345,1.9006678e-05,487.9847,0.1000061,0.010000001,-487.9847,0.120091714,0.11287408,0.08014833,0.04922733,inf,inf,inf,inf,inf,160,1,1,1,1,3,3,2,1,4,1,1,1,0,3,0,0
1771685327556000,1771685327556000,1771685327556000,1771684928340000,47.3977419,8.5455939,-0.042489305,0.0030004005,-0.01651001,0.004007112,-0.0025302004,-487.9847,-0.001269364,0.028579857,-0.043615483,-0.06372673,-0.00090424286,0.00046052953,-0.0002578646,-0.015506469,-0.016682543,0.020532401,-0.004317213,0.00033598958,-0.0107997265,-0.0090063345,1.9050898e-05,487.9847,0.1000061,0.010000001,-487.9847,0.1204953,0.113123946,0.08044885,0.04931024,inf,inf,inf,inf,inf,160,1,1,1,1,3,3,2,1,4,1,1,1,0,3,0,0
1771685327564000,1771685327564000,1771685327564000,1771684928340000,47.3977419,8.5455939,-0.04251488,0.0030386772,-0.016693115,0.004007112,-0.0025302004,-487.9847,-0.0013209557,0.028400624,-0.043277923,-0.06315058,-0.00090424286,0.00046052953,-0.0002578646,-0.0069211614,-0.0035098898,0.03434112,-0.0041996636,0.00033609645,-0.01068227,-0.0090063345,1.9095154e-05,487.9847,0.1000061,0.010000001,-487.9847,0.120901614,0.11331572,0.08074886,0.049382653,inf,inf,inf,inf,inf,160,1,1,1,1,3,3,2,1,4,1,1,1,0,3,0,0
1771685327572000,1771685327572000,1771685327572000,1771684928340000,47.3977419,8.5455939,-0.042539462,0.0030812055,-0.016906738,0.004007112,-0.0025302004,-487.9847,-0.0011907351,0.028625049,-0.043251686,-0.06288796,-0.00090424286,0.00046052953,-0.0002578646,0.015836783,0.046433136,-0.004423316,-0.004188708,0.00033620337,-0.010671371,-0.0090063345,1.9139448e-05,487.9847,0.1000061,0.010000001,-487.9847,0.1213107,0.11356712,0.08104898,0.04946532,inf,inf,inf,inf,inf,160,1,1,1,1,3,3,2,1,4,1,1,1,0,3,0,0
1771685327580000,1771685327580000,1771685327580000,1771684928340000,47.3977419,8.5455939,-0.042565774,0.0031294671,-0.017089844,0.004007112,-0.0025302004,-487.9847,-0.001584428,0.028768344,-0.04307426,-0.062476337,-0.00090424286,0.00046052953,-0.0002578646,-0.049551442,0.035819918,0.014622229,-0.004087272,0.0003354223,-0.010569959,-0.0090063345,1.9172916e-05,487.9847,0.1000061,0.010000001,-487.9847,0.12172014,0.11381937,0.08134069,0.04954787,inf,inf,inf,inf,inf,160,1,1,1,1,3,3,2,1,4,1,1,1,0,3,0,0
1771685327588000,1771685327588000,1771685327588000,1771684928340000,47.3977419,8.5455939,-0.042593647,0.0031842298,-0.017303467,0.004007112,-0.0025302004,-487.9847,-0.0015825008,0.029203419,-0.04327033,-0.062440295,-0.00090424286,0.00046052953,-0.0002578646,-7.98168e-05,0.07180639,-0.031921543,-0.0040240386,0.00033552895,-0.010506971,-0.0090063345,1.9217274e-05,487.9847,0.1000061,0.010000001,-487.9847,0.12213469,0.11407244,0.08164262,0.049630284,inf,inf,inf,inf,inf,160,1,1,1,1,3,3,2,1,4,1,1,1,0,3,0,0
1771685327596000,1771685327596000,1771685327596000,1771684928340000,47.3977419,8.5455939,-0.042620786,0.0032016465,-0.01751709,0.004007112,-0.0025302004,-487.9847,-0.0017196201,0.029264994,-0.043198653,-0.062143777,-0.00090424286,0.00046052953,-0.0002578646,-0.017611066,0.028977444,0.0008810311,-0.003937331,0.00033561213,-0.010420482,-0.0090063345,1.8981169e-05,487.9847,0.1000061,0.010000001,-487.9847,0.11988693,0.1127481,0.07999245,0.049184743,inf,inf,inf,inf,inf,160,1,1,1,1,3,3,2,1,4,1,1,1,0,3,0,0
1771685327604000,1771685327604000,1771685327604000,1771684928340000,47.3977419,8.5455939,-0.042648822,0.003225301,-0.017700195,0.004007112,-0.0025302004,-487.9847,-0.0018263492,0.029514885,-0.04339594,-0.06211816,-0.00090424286,0.00046052953,-0.0002578646,-0.013784054,0.051943254,-0.03258092,-0.003955403,0.00033571885,-0.010438412,-0.0090063345,1.9025367e-05,487.9847,0.1000061,0.010000001,-487.9847,0.12028907,0.11299754,0.08029136,0.04926772,inf,inf,inf,inf,inf,160,1,1,1,1,3,3,2,1,4,1,1,1,0,3,0,0
1771685327612000,1771685327612000,1771685327612000,1771684928340000,47.3977419,8.5455939,-0.04267739,0.0032553282,-0.017913818,0.004007112,-0.0025302004,-487.9847,-0.0018532563,0.029594002,-0.043628257,-0.06212951,-0.00090424286,0.00046052953,-0.0002578646,-0.0037816023,0.030033162,-0.036804933,-0.0039883605,0.00033582555,-0.010471189,-0.0090063345,1.9069597e-05,487.9847,0.1000061,0.010000001,-487.9847,0.120693974,0.11324782,0.08059166,0.049350567,inf,inf,inf,inf,inf,160,1,1,1,1,3,3,2,1,4,1,1,1,0,3,0,0
1771685327620000,1771685327620000,1771685327620000,1771684928340000,47.3977419,8.5455939,-0.042706043,0.0032902285,-0.018127441,0.004007112,-0.0025302004,-487.9847,-0.0017811386,0.029740175,-0.04366396,-0.06194208,-0.00090424286,0.00046052953,-0.0002578646,0.008621117,0.037865736,-0.012230593,-0.0039660116,0.00033593242,-0.010448622,-0.0090063345,1.9113875e-05,487.9847,0.1000061,0.010000001,-487.9847,0.12110162,0.1134398,0.08089235,0.049422868,inf,inf,inf,inf,inf,160,1,1,1,1,3,3,2,1,4,1,1,1,0,3,0,0
1771685327628000,1771685327628000,1771685327628000,1771684928340000,47.3977419,8.5455939,-0.042733375,0.0033315087,-0.018310547,0.004007112,-0.0025302004,-487.9847,-0.0015830641,0.029893436,-0.04347086,-0.06152782,-0.00090424286,0.00046052953,-0.0002578646,0.024394473,0.038222123,0.01652073,-0.003936294,0.00033603926,-0.010418652,-0.0090063345,1.9158186e-05,487.9847,0.1000061,0.010000001,-487.9847,0.121512026,0.11369161,0.081192195,0.049505476,inf,inf,inf,inf,inf,160,1,1,1,1,3,3,2,1,4,1,1,1,0,3,0,0
1771685327636000,1771685327636000,1771685327636000,1771684928340000,47.3977419,8.5455939,-0.042759255,0.0033793403,-0.01852417,0.004007112,-0.0025302004,-487.9847,-0.0013999096,0.030373996,-0.043412276,-0.061250053,-0.00090424286,0.00046052953,-0.0002578646,0.022551958,0.07861794,-0.00014761461,-0.003917291,0.00033614613,-0.01039937,-0.0090063345,1.9202535e-05,487.9847,0.1000061,0.010000001,-487.9847,0.1219252,0.11394426,0.0814928,0.049587958,inf,inf,inf,inf,inf,160,1,1,1,1,3,3,2,1,4,1,1,1,0,3,0,0
1771685327644000,1771685327644000,1771685327644000,1771684928340000,47.3977419,8.5455939,-0.042782456,0.0034069666,-0.018737793,0.004007112,-0.0025302004,-487.9847,-0.0013559259,0.030805156,-0.043319926,-0.06094669,-0.00090424286,0.00046052953,-0.0002578646,0.004947779,0.07549525,0.0034119,-0.003891718,0.00033623035,-0.010373494,-0.0090063345,1.8968303e-05,487.9847,0.1000061,0.010000001,-487.9847,0.11969219,0.11262505,0.07985478,0.049144294,inf,inf,inf,inf,inf,160,1,1,1,1,3,3,2,1,4,1,1,1,0,3,0,0
1771685327652000,1771685327652000,1771685327652000,1771684928340000,47.3977419,8.5455939,-0.042805668,0.0034406723,-0.018951416,0.004007112,-0.0025302004,-487.9847,-0.0012197609,0.030626893,-0.043560527,-0.06097802,-0.00090424286,0.00046052953,-0.0002578646,0.016613703,-0.0012983027,-0.03804499,-0.0038461732,0.00033544833,-0.010327341,-0.0090063345,1.9001825e-05,487.9847,0.1000061,0.010000001,-487.9847,0.120090865,0.11287408,0.08014521,0.04922733,inf,inf,inf,inf,inf,160,1,1,1,1,3,3,2,1,4,1,1,1,0,3,0,0
1771685327660000,1771685327660000,1771685327660000,1771684928340000,47.3977419,8.5455939,-0.042827845,0.0034775066,-0.019134521,0.004007112,-0.0025302004,-487.9847,-0.0011161306,0.030508272,-0.043534152,-0.060744077,-0.00090424286,0.00046052953,-0.0002578646,0.01257539,0.005593037,-0.0045150514,-0.003841499,0.000335555,-0.010321755,-0.0090063345,1.9046041e-05,487.9847,0.1000061,0.010000001,-487.9847,0.12049442,0.113123946,0.08044516,0.04931024,inf,inf,inf,inf,inf,160,1,1,1,1,3,3,2,1,4,1,1,1,0,3,0,0
1771685327668000,1771685327668000,1771685327668000,1771684928340000,47.3977419,8.5455939,-0.042849462,0.003519512,-0.019348145,0.004007112,-0.0025302004,-487.9847,-0.0011100704,0.030774055,-0.043521322,-0.06052036,-0.00090424286,0.00046052953,-0.0002578646,0.0003634991,0.05311133,-0.0062184404,-0.003846547,0.0003355137,-0.010325881,-0.0090063345,1.9088202e-05,487.9847,0.1000061,0.010000001,-487.9847,0.12090033,0.11331572,0.080743074,0.049382657,inf,inf,inf,inf,inf,160,1,1,1,1,3,3,2,1,4,1,1,1,0,3,0,0
1771685327676000,1771685327676000,1771685327676000,1771684928340000,47.3977419,8.5455939,-0.042872302,0.0035691848,-0.019561768,0.004007112,-0.0025302004,-487.9847,-0.0014197674,0.031194044,-0.043399643,-0.06018969,-0.00090424286,0.00046052953,-0.0002578646,-0.03907991,0.07184422,0.0075418497,-0.0038532398,0.0003356203,-0.010333095,-0.0090063345,1.9132482e-05,487.9847,0.1000061,0.010000001,-487.9847,0.121309385,0.11356712,0.0810429,0.04946533,inf,inf,inf,inf,inf,160,1,1,1,1,3,3,2,1,4,1,1,1,0,3,0,0
1771685327684000,1771685327684000,1771685327684000,1771684928340000,47.3977419,8.5455939,-0.042897467,0.003625358,-0.019744873,0.004007112,-0.0025302004,-487.9847,-0.0016306129,0.031277675,-0.043193616,-0.059776563,-0.00090424286,0.00046052953,-0.0002578646,-0.026697436,0.02927027,0.018235294,-0.0038322893,0.00033572695,-0.01031266,-0.0090063345,1.9176801e-05,487.9847,0.1000061,0.010000001,-487.9847,0.12172119,0.11381937,0.0813436,0.04954787,inf,inf,inf,inf,inf,160,1,1,1,1,3,3,2,1,4,1,1,1,0,3,0,0
1771685327692000,1771685327692000,1771685327692000,1771684928340000,47.3977419,8.5455939,-0.042924065,0.0036859128,-0.019958496,0.004007112,-0.0025302004,-487.9847,-0.0018022167,0.031195365,-0.04347272,-0.059850406,-0.00090424286,0.00046052953,-0.0002578646,-0.02176365,0.008013775,-0.04226062,-0.0038177355,0.00033583376,-0.010298617,-0.0090063345,1.9221165e-05,487.9847,0.1000061,0.010000001,-487.9847,0.12213577,0.11407244,0.08164434,0.049630284,inf,inf,inf,inf,inf,160,1,1,1,1,3,3,2,1,4,1,1,1,0,3,0,0
1771685327700000,1771685327700000,1771685327700000,1771684928340000,47.3977419,8.5455939,-0.042949088,0.0037203995,-0.02017212,0.004007112,-0.0025302004,-487.9847,-0.001860674,0.031021392,-0.04340673,-0.05958623,-0.00090424286,0.00046052953,-0.0002578646,-0.007919475,-0.00036356592,0.0002356246,-0.0038191916,0.00033591763,-0.010300583,-0.0090063345,1.8984949e-05,487.9847,0.1000061,0.010000001,-487.9847,0.119887896,0.1127481,0.079994395,0.049184736,inf,inf,inf,inf,inf,160,1,1,1,1,3,3,2,1,4,1,1,1,0,3,0,0
1771685327708000,1771685327708000,1771685327708000,1771684928340000,47.3977419,8.5455939,-0.0429746,0.0037591371,-0.020385742,0.004007112,-0.0025302004,-487.9847,-0.0018364374,0.030999545,-0.04378691,-0.059769917,-0.00090424286,0.00046052953,-0.0002578646,0.002443984,0.018075535,-0.05537504,-0.0038879558,0.0003360244,-0.010369582,-0.0090063345,1.9029143e-05,487.9847,0.1000061,0.010000001,-487.9847,0.120290056,0.11299754,0.08029331,0.049267706,inf,inf,inf,inf,inf,160,1,1,1,1,3,3,2,1,4,1,1,1,0,3,0,0
1771685327716000,1771685327716000,1771685327716000,1771684928340000,47.3977419,8.5455939,-0.042999495,0.0038034997,-0.020599365,0.004007112,-0.0025302004,-487.9847,-0.0017749479,0.031277776,-0.044191543,-0.059979804,-0.00090424286,0.00046052953,-0.0002578646,0.007118696,0.055004735,-0.058275644,-0.0039151576,0.000335244,-0.010397025,-0.0090063345,1.9062647e-05,487.9847,0.1000061,0.010000001,-487.9847,0.1206927,0.11324782,0.08058308,0.049350556,inf,inf,inf,inf,inf,160,1,1,1,1,3,3,2,1,4,1,1,1,0,3,0,0
1771685327724000,1771685327724000,1771685327724000,1771684928340000,47.3977419,8.5455939,-0.043024573,0.0038523139,-0.020812988,0.004007112,-0.0025302004,-487.9847,-0.0018278437,0.030855091,-0.04442083,-0.06001209,-0.00090424286,0.00046052953,-0.0002578646,-0.0071506626,-0.033157732,-0.036353707,-0.0038872196,0.00033535052,-0.010369275,-0.0090063345,1.9106908e-05,487.9847,0.1000061,0.010000001,-487.9847,0.1211003,0.1134398,0.08088315,0.049422856,inf,inf,inf,inf,inf,160,1,1,1,1,3,3,2,1,4,1,1,1,0,3,0,0
1771685327732000,1771685327732000,1771685327732000,1771684928340000,47.3977419,8.5455939,-0.04304987,0.0039036474,-0.021026611,0.004007112,-0.0025302004,-487.9847,-0.0017790647,0.030914957,-0.044367574,-0.059763756,-0.00090424286,0.00046052953,-0.0002578646,0.005587926,0.026622254,-0.00088289374,-0.0038315041,0.00033545707,-0.010313759,-0.0090063345,1.9151204e-05,487.9847,0.1000061,0.010000001,-487.9847,0.12151066,0.11369161,0.08118284,0.049505465,inf,inf,inf,inf,inf,160,1,1,1,1,3,3,2,1,4,1,1,1,0,3,0,0
1771685327740000,1771685327740000,1771685327740000,1771684928340000,47.3977419,8.5455939,-0.043073762,0.0039602173,-0.021240234,0.004007112,-0.0025302004,-487.9847,-0.0014672637,0.03101958,-0.044439565,-0.05964256,-0.00090424286,0.00046052953,-0.0002578646,0.038496748,0.031691764,-0.016390344,-0.0037799312,0.00033556364,-0.010262395,-0.0090063345,1.919554e-05,487.9847,0.1000061,0.010000001,-487.9847,0.12192379,0.11394426,0.081484005,0.049587946,inf,inf,inf,inf,inf,160,1,1,1,1,3,3,2,1,4,1,1,1,0,3,0,0
1771685327748000,1771685327748000,1771685327748000,1771684928340000,47.3977419,8.5455939,-0.043091718,0.0039862473,-0.021453857,0.004007112,-0.0025302004,-487.9847,-0.001016976,0.03123088,-0.044132493,-0.05915039,-0.00090424286,0.00046052953,-0.0002578646,0.055440005,0.048498947,0.030361114,-0.0037912661,0.00033564764,-0.010273945,-0.0090063345,1.8961557e-05,487.9847,0.1000061,0.010000001,-487.9847,0.119690984,0.11262505,0.079846226,0.049144287,inf,inf,inf,inf,inf,160,1,1,1,1,3,3,2,1,4,1,1,1,0,3,0,0
1771685327756000,1771685327756000,1771685327756000,1771684928340000,47.3977419,8.5455939,-0.043105826,0.004019474,-0.02166748,0.004007112,-0.0025302004,-487.9847,-0.0005847254,0.031671904,-0.04405127,-0.058885694,-0.00090424286,0.00046052953,-0.0002578646,0.053223684,0.07661365,0.002292916,-0.003803934,0.0003357543,-0.010286518,-0.0090063345,1.9005733e-05,487.9847,0.1000061,0.010000001,-487.9847,0.12009181,0.11287408,0.08014613,0.049227327,inf,inf,inf,inf,inf,160,1,1,1,1,3,3,2,1,4,1,1,1,0,3,0,0
1771685327764000,1771685327764000,1771685327764000,1771684928340000,47.3977419,8.5455939,-0.04311776,0.004061696,-0.021881104,0.004007112,-0.0025302004,-487.9847,-0.00033421168,0.03210947,-0.04396682,-0.058619317,-0.00090424286,0.00046052953,-0.0002578646,0.030541569,0.07560044,0.0028554348,-0.0038078933,0.000335861,-0.010290398,-0.0090063345,1.9049947e-05,487.9847,0.1000061,0.010000001,-487.9847,0.12049538,0.113123946,0.08044642,0.049310237,inf,inf,inf,inf,inf,160,1,1,1,1,3,3,2,1,4,1,1,1,0,3,0,0
1771685327772000,1771685327772000,1771685327772000,1771684928340000,47.3977419,8.5455939,-0.043128263,0.004110155,-0.022094727,0.004007112,-0.0025302004,-487.9847,-0.00026864727,0.032076493,-0.043892935,-0.058358993,-0.00090424286,0.00046052953,-0.0002578646,0.0074585597,0.016212147,0.0014905817,-0.0037662233,0.00033596775,-0.010248666,-0.0090063345,1.9094197e-05,487.9847,0.1000061,0.010000001,-487.9847,0.120901704,0.11331572,0.080746554,0.04938265,inf,inf,inf,inf,inf,160,1,1,1,1,3,3,2,1,4,1,1,1,0,3,0,0
1771685327780000,1771685327780000,1771685327780000,1771684928340000,47.3977419,8.5455939,-0.043138597,0.004163129,-0.02230835,0.004007112,-0.0025302004,-487.9847,-0.00017969127,0.03202736,-0.04383467,-0.05811601,-0.00090424286,0.00046052953,-0.0002578646,0.010419047,0.013637579,-0.00030593944,-0.0037575038,0.00033607453,-0.0102399,-0.0090063345,1.9138486e-05,487.9847,0.1000061,0.010000001,-487.9847,0.12131077,0.11356712,0.08104643,0.04946532,inf,inf,inf,inf,inf,160,1,1,1,1,3,3,2,1,4,1,1,1,0,3,0,0
1771685327788000,1771685327788000,1771685327788000,1771684928340000,47.3977419,8.5455939,-0.043144602,0.004218488,-0.022521973,0.004007112,-0.0025302004,-487.9847,0.0003321091,0.03181698,-0.043581143,-0.0576795,-0.00090424286,0.00046052953,-0.0002578646,0.06286358,-0.0068463376,0.024254432,-0.003748594,0.00033529388,-0.010230963,-0.0090063345,1.9171945e-05,487.9847,0.1000061,0.010000001,-487.9847,0.1217202,0.11381937,0.08133755,0.049547866,inf,inf,inf,inf,inf,160,1,1,1,1,3,3,2,1,4,1,1,1,0,3,0,0
1771685327796000,1771685327796000,1771685327796000,1771684928340000,47.3977419,8.5455939,-0.043147795,0.004277078,-0.022735596,0.004007112,-0.0025302004,-487.9847,0.00035272643,0.03168108,-0.043798514,-0.057715613,-0.00090424286,0.00046052953,-0.0002578646,0.0015044279,0.0019305088,-0.034459863,-0.003745364,0.0003354004,-0.010229625,-0.0090063345,1.9216299e-05,487.9847,0.1000061,0.010000001,-487.9847,0.122134745,0.11407244,0.081638135,0.049630284,inf,inf,inf,inf,inf,160,1,1,1,1,3,3,2,1,4,1,1,1,0,3,0,0
1771685327804000,1771685327804000,1771685327804000,1771684928340000,47.3977419,8.5455939,-0.043140396,0.0043089697,-0.022918701,0.004007112,-0.0025302004,-487.9847,3.8401624e-05,0.03186632,-0.043745276,-0.057482027,-0.00090424286,0.00046052953,-0.0002578646,-0.041160464,0.045384597,-0.0014919786,-0.0036302228,0.0003354839,-0.0101163965,-0.0090063345,1.8980269e-05,487.9847,0.1000061,0.010000001,-487.9847,0.119887,0.1127481,0.07998938,0.049184736,inf,inf,inf,inf,inf,160,1,1,1,1,3,3,2,1,4,1,1,1,0,3,0,0
1771685327812000,1771685327812000,1771685327812000,1771684928340000,47.3977419,8.5455939,-0.043134775,0.0043468815,-0.023132324,0.004007112,-0.0025302004,-487.9847,-1.00093985e-05,0.031853143,-0.04343492,-0.056993034,-0.00090424286,0.00046052953,-0.0002578646,-0.0078607695,0.019976217,0.0308156,-0.0036550288,0.0003355905,-0.010142832,-0.0090063345,1.9024461e-05,487.9847,0.1000061,0.010000001,-487.9847,0.12028915,0.11299754,0.08028889,0.049267713,inf,inf,inf,inf,inf,160,1,1,1,1,3,3,2,1,4,1,1,1,0,3,0,0
1771685327820000,1771685327820000,1771685327820000,1771684928340000,47.3977419,8.5455939,-0.043131374,0.0043891575,-0.023345947,0.004007112,-0.0025302004,-487.9847,-0.00039062984,0.03181815,-0.043480687,-0.05686185,-0.00090424286,0.00046052953,-0.0002578646,-0.049323745,0.016663324,-0.01353491,-0.0036628025,0.0003356972,-0.010152271,-0.0090063345,1.9068695e-05,487.9847,0.1000061,0.010000001,-487.9847,0.120694034,0.11324782,0.080588706,0.04935056,inf,inf,inf,inf,inf,160,1,1,1,1,3,3,2,1,4,1,1,1,0,3,0,0
1771685327828000,1771685327828000,1771685327828000,1771684928340000,47.3977419,8.5455939,-0.0431307,0.004437164,-0.02355957,0.004007112,-0.0025302004,-487.9847,-0.00053491106,0.03205556,-0.043899633,-0.05710253,-0.00090424286,0.00046052953,-0.0002578646,-0.019722885,0.050138142,-0.060112678,-0.0036608737,0.00033580384,-0.010152045,-0.0090063345,1.9112962e-05,487.9847,0.1000061,0.010000001,-487.9847,0.12110167,0.1134398,0.080888376,0.049422864,inf,inf,inf,inf,inf,160,1,1,1,1,3,3,2,1,4,1,1,1,0,3,0,0
1771685327836000,1771685327836000,1771685327836000,1771684928340000,47.3977419,8.5455939,-0.04312974,0.004491393,-0.023773193,0.004007112,-0.0025302004,-487.9847,-0.00025306788,0.032106936,-0.04375472,-0.056781165,-0.00090424286,0.00046052953,-0.0002578646,0.03360102,0.026327398,0.010527669,-0.0036750236,0.00033591044,-0.010167895,-0.0090063345,1.915726e-05,487.9847,0.1000061,0.010000001,-487.9847,0.12151206,0.11369161,0.08118813,0.049505472,inf,inf,inf,inf,inf,160,1,1,1,1,3,3,2,1,4,1,1,1,0,3,0,0
1771685327844000,1771685327844000,1771685327844000,1771684928340000,47.3977419,8.5455939,-0.043127175,0.0045494414,-0.023986816,0.004007112,-0.0025302004,-487.9847,-5.460977e-05,0.031959485,-0.043913282,-0.056765046,-0.00090424286,0.00046052953,-0.0002578646,0.023234446,0.0009293253,-0.02725329,-0.0036955737,0.0003360172,-0.010190142,-0.0090063345,1.9201603e-05,487.9847,0.1000061,0.010000001,-487.9847,0.12192522,0.11394426,0.08148942,0.049587954,inf,inf,inf,inf,inf,160,1,1,1,1,3,3,2,1,4,1,1,1,0,3,0,0
1771685327852000,1771685327852000,1771685327852000,1771684928340000,47.3977419,8.5455939,-0.04311074,0.0045793965,-0.024169922,0.004007112,-0.0025302004,-487.9847,7.484592e-05,0.031819113,-0.043958824,-0.056633834,-0.00090424286,0.00046052953,-0.0002578646,0.013706345,0.0051524574,-0.01408765,-0.003661868,0.0003352141,-0.010158133,-0.0090063345,1.8956842e-05,487.9847,0.1000061,0.010000001,-487.9847,0.1196901,0.11262505,0.07984241,0.049144294,inf,inf,inf,inf,inf,160,1,1,1,1,3,3,2,1,4,1,1,1,0,3,0,0
1771685327860000,1771685327860000,1771685327860000,1771684928340000,47.3977419,8.5455939,-0.04309359,0.004613712,-0.024383545,0.004007112,-0.0025302004,-487.9847,0.0002638108,0.031797167,-0.044005413,-0.056505512,-0.00090424286,0.00046052953,-0.0002578646,0.021221954,0.019342791,-0.014041084,-0.0036241836,0.0003353206,-0.010121918,-0.0090063345,1.9001014e-05,487.9847,0.1000061,0.010000001,-487.9847,0.12009091,0.11287408,0.08014278,0.04922733,inf,inf,inf,inf,inf,160,1,1,1,1,3,3,2,1,4,1,1,1,0,3,0,0
1771685327868000,1771685327868000,1771685327868000,1771684928340000,47.3977419,8.5455939,-0.043076016,0.0046526054,-0.024597168,0.004007112,-0.0025302004,-487.9847,0.00028910654,0.031965148,-0.044038806,-0.05636571,-0.00090424286,0.00046052953,-0.0002578646,0.0007788776,0.042676702,-0.012218486,-0.003576723,0.00033527965,-0.010075932,-0.0090063345,1.9043142e-05,487.9847,0.1000061,0.010000001,-487.9847,0.120494075,0.113123946,0.08044184,0.04931024,inf,inf,inf,inf,inf,160,1,1,1,1,3,3,2,1,4,1,1,1,0,3,0,0
1771685327876000,1771685327876000,1771685327876000,1771684928340000,47.3977419,8.5455939,-0.04306016,0.0046990975,-0.024810791,0.004007112,-0.0025302004,-487.9847,-1.452809e-05,0.032458097,-0.044062458,-0.056213748,-0.00090424286,0.00046052953,-0.0002578646,-0.040257085,0.082711205,-0.010977964,-0.0035531325,0.0003353861,-0.010052143,-0.0090063345,1.9087382e-05,487.9847,0.1000061,0.010000001,-487.9847,0.12090037,0.11331572,0.08074229,0.049382653,inf,inf,inf,inf,inf,160,1,1,1,1,3,3,2,1,4,1,1,1,0,3,0,0
1771685327884000,1771685327884000,1771685327884000,1771684928340000,47.3977419,8.5455939,-0.043047402,0.0047521032,-0.024993896,0.004007112,-0.0025302004,-487.9847,-0.0003242781,0.032356452,-0.043681916,-0.055660278,-0.00090424286,0.00046052953,-0.0002578646,-0.04094589,0.007811123,0.03971392,-0.003469986,0.00033549254,-0.009968804,-0.0090063345,1.9131654e-05,487.9847,0.1000061,0.010000001,-487.9847,0.121309415,0.11356712,0.081042394,0.04946532,inf,inf,inf,inf,inf,160,1,1,1,1,3,3,2,1,4,1,1,1,0,3,0,0
1771685327892000,1771685327892000,1771685327892000,1771684928340000,47.3977419,8.5455939,-0.043037605,0.0048102755,-0.02520752,0.004007112,-0.0025302004,-487.9847,-0.000469749,0.03268842,-0.043459356,-0.055267412,-0.00090424286,0.00046052953,-0.0002578646,-0.020341199,0.061451193,0.020129139,-0.003381593,0.00033559918,-0.009880224,-0.0090063345,1.9175975e-05,487.9847,0.1000061,0.010000001,-487.9847,0.12172122,0.11381937,0.08134324,0.049547866,inf,inf,inf,inf,inf,160,1,1,1,1,3,3,2,1,4,1,1,1,0,3,0,0
1771685327900000,1771685327900000,1771685327900000,1771684928340000,47.3977419,8.5455939,-0.04302826,0.0048753493,-0.025421143,0.004007112,-0.0025302004,-487.9847,-0.00041712783,0.032752484,-0.04378917,-0.055429514,-0.00090424286,0.00046052953,-0.0002578646,0.004490239,0.027420787,-0.048758924,-0.003385667,0.00033570564,-0.009884116,-0.0090063345,1.9220319e-05,487.9847,0.1000061,0.010000001,-487.9847,0.1221358,0.11407244,0.08164348,0.049630284,inf,inf,inf,inf,inf,160,1,1,1,1,3,3,2,1,4,1,1,1,0,3,0,0
1771685327908000,1771685327908000,1771685327908000,1771684928340000,47.3977419,8.5455939,-0.04301892,0.0049116807,-0.025604248,0.004007112,-0.0025302004,-487.9847,-0.00042746193,0.032732993,-0.043908767,-0.05537418,-0.00090424286,0.00046052953,-0.0002578646,-0.0034263975,0.020441035,-0.02364721,-0.0033895795,0.00033578934,-0.009887854,-0.0090063345,1.8984156e-05,487.9847,0.1000061,0.010000001,-487.9847,0.11988792,0.1127481,0.07999382,0.049184743,inf,inf,inf,inf,inf,160,1,1,1,1,3,3,2,1,4,1,1,1,0,3,0,0
1771685327916000,1771685327916000,1771685327916000,1771684928340000,47.3977419,8.5455939,-0.043011032,0.0049530915,-0.025817871,0.004007112,-0.0025302004,-487.9847,-0.0006717328,0.03269296,-0.043848213,-0.055140678,-0.00090424286,0.00046052953,-0.0002578646,-0.032606844,0.017247755,-0.0009397044,-0.0033930193,0.00033589598,-0.009890815,-0.0090063345,1.9028346e-05,487.9847,0.1000061,0.010000001,-487.9847,0.120290086,0.11299754,0.080293335,0.04926772,inf,inf,inf,inf,inf,160,1,1,1,1,3,3,2,1,4,1,1,1,0,3,0,0
1771685327924000,1771685327924000,1771685327924000,1771684928340000,47.3977419,8.5455939,-0.04300409,0.004998013,-0.026000977,0.004007112,-0.0025302004,-487.9847,-0.0008502166,0.03245619,-0.04396195,-0.05508344,-0.00090424286,0.00046052953,-0.0002578646,-0.024607584,-0.007903634,-0.022543127,-0.0034701005,0.000335116,-0.0099674305,-0.0090063345,1.9061838e-05,487.9847,0.1000061,0.010000001,-487.9847,0.12069273,0.11324782,0.080583856,0.049350567,inf,inf,inf,inf,inf,160,1,1,1,1,3,3,2,1,4,1,1,1,0,3,0,0
1771685327932000,1771685327932000,1771685327932000,1771684928340000,47.3977419,8.5455939,-0.04299951,0.0050479155,-0.0262146,0.004007112,-0.0025302004,-487.9847,-0.0010970678,0.03269911,-0.044041287,-0.05498973,-0.00090424286,0.00046052953,-0.0002578646,-0.033084318,0.05146427,-0.018216668,-0.003534794,0.0003352224,-0.010032225,-0.0090063345,1.9106094e-05,487.9847,0.1000061,0.010000001,-487.9847,0.12110034,0.1134398,0.080883786,0.049422868,inf,inf,inf,inf,inf,160,1,1,1,1,3,3,2,1,4,1,1,1,0,3,0,0
1771685327940000,1771685327940000,1771685327940000,1771684928340000,47.3977419,8.5455939,-0.042996,0.005104458,-0.026397705,0.004007112,-0.0025302004,-487.9847,-0.00094250025,0.032959543,-0.04400659,-0.05478409,-0.00090424286,0.00046052953,-0.0002578646,0.017154157,0.05307393,-0.0037848947,-0.003520665,0.00033532872,-0.010018209,-0.0090063345,1.9150382e-05,487.9847,0.1000061,0.010000001,-487.9847,0.1215107,0.11369161,0.08118368,0.049505476,inf,inf,inf,inf,inf,160,1,1,1,1,3,3,2,1,4,1,1,1,0,3,0,0
1771685327948000,1771685327948000,1771685327948000,1771684928340000,47.3977419,8.5455939,-0.04299114,0.0051681134,-0.026611328,0.004007112,-0.0025302004,-487.9847,-0.0007017948,0.03320319,-0.04425572,-0.054864347,-0.00090424286,0.00046052953,-0.0002578646,0.02798623,0.050415937,-0.039090864,-0.0035064474,0.00033543524,-0.010004116,-0.0090063345,1.9194718e-05,487.9847,0.1000061,0.010000001,-487.9847,0.12192383,0.11394426,0.08148484,0.049587958,inf,inf,inf,inf,inf,160,1,1,1,1,3,3,2,1,4,1,1,1,0,3,0,0
1771685327956000,1771685327956000,1771685327956000,1771684928340000,47.3977419,8.5455939,-0.042985976,0.005224654,-0.026794434,0.004007112,-0.0025302004,-487.9847,-0.00066904223,0.03311611,-0.044241156,-0.054667093,-0.00090424286,0.00046052953,-0.0002578646,0.002042449,0.011439916,-0.0074971463,-0.0034953388,0.00033551853,-0.009993093,-0.0090063345,1.896076e-05,487.9847,0.1000061,0.010000001,-487.9847,0.11969101,0.11262505,0.07984698,0.049144294,inf,inf,inf,inf,inf,160,1,1,1,1,3,3,2,1,4,1,1,1,0,3,0,0
1771685327964000,1771685327964000,1771685327964000,1771684928340000,47.3977419,8.5455939,-0.04298119,0.0052853567,-0.026977539,0.004007112,-0.0025302004,-487.9847,-0.000615843,0.033089798,-0.044319056,-0.054564957,-0.00090424286,0.00046052953,-0.0002578646,0.004662709,0.01842947,-0.018846707,-0.0034558517,0.00033562494,-0.009953413,-0.0090063345,1.9004925e-05,487.9847,0.1000061,0.010000001,-487.9847,0.12009184,0.11287408,0.08014557,0.049227335,inf,inf,inf,inf,inf,160,1,1,1,1,3,3,2,1,4,1,1,1,0,3,0,0
1771685327972000,1771685327972000,1771685327972000,1771684928340000,47.3977419,8.5455939,-0.04297636,0.005349541,-0.027160645,0.004007112,-0.0025302004,-487.9847,-0.00059002853,0.032840326,-0.044427913,-0.05449641,-0.00090424286,0.00046052953,-0.0002578646,0.0013039571,-0.010051712,-0.022514256,-0.0034826242,0.00033573157,-0.009979963,-0.0090063345,1.9049137e-05,487.9847,0.1000061,0.010000001,-487.9847,0.12049541,0.113123946,0.08044518,0.04931024,inf,inf,inf,inf,inf,160,1,1,1,1,3,3,2,1,4,1,1,1,0,3,0,0
1771685327980000,1771685327980000,1771685327980000,1771684928340000,47.3977419,8.5455939,-0.042971812,0.005416291,-0.02734375,0.004007112,-0.0025302004,-487.9847,-0.00050089683,0.03265781,-0.04433135,-0.054221954,-0.00090424286,0.00046052953,-0.0002578646,0.009278393,-0.0022552093,0.0032521782,-0.003494399,0.0003358382,-0.009991481,-0.0090063345,1.9093384e-05,487.9847,0.1000061,0.010000001,-487.9847,0.120901726,0.11331572,0.08074619,0.049382657,inf,inf,inf,inf,inf,160,1,1,1,1,3,3,2,1,4,1,1,1,0,3,0,0
1771685327988000,1771685327988000,1771685327988000,1771684928340000,47.3977419,8.5455939,-0.04296552,0.0054869605,-0.027526855,0.004007112,-0.0025302004,-487.9847,-0.00011964841,0.03268198,-0.044292945,-0.054008197,-0.00090424286,0.00046052953,-0.0002578646,0.045845456,0.023039216,-0.0038235446,-0.0035092444,0.00033505872,-0.010006036,-0.0090063345,1.9126852e-05,487.9847,0.1000061,0.010000001,-487.9847,0.121308446,0.11356712,0.081036896,0.04946533,inf,inf,inf,inf,inf,160,1,1,1,1,3,3,2,1,4,1,1,1,0,3,0,0
1771685327996000,1771685327996000,1771685327996000,1771684928340000,47.3977419,8.5455939,-0.042959202,0.005561518,-0.027709961,0.004007112,-0.0025302004,-487.9847,-0.000363308,0.03259569,-0.04421394,-0.053756323,-0.00090424286,0.00046052953,-0.0002578646,-0.032207843,0.008684595,0.0014402902,-0.0034601172,0.000335165,-0.009956768,-0.0090063345,1.9171162e-05,487.9847,0.1000061,0.010000001,-487.9847,0.12172023,0.11381937,0.08133784,0.04954787,inf,inf,inf,inf,inf,160,1,1,1,1,3,3,2,1,4,1,1,1,0,3,0,0
1771685328004000,1771685328004000,1771685328004000,1771684928340000,47.3977419,8.5455939,-0.042954672,0.0056392755,-0.027923584,0.004007112,-0.0025302004,-487.9847,-0.00039135304,0.0323507,-0.044136584,-0.0535085,-0.00090424286,0.00046052953,-0.0002578646,-0.0051951613,-0.011679524,0.0014179385,-0.0034322925,0.0003352714,-0.009928768,-0.0090063345,1.921551e-05,487.9847,0.1000061,0.010000001,-487.9847,0.12213478,0.11407244,0.08163876,0.049630288,inf,inf,inf,inf,inf,160,1,1,1,1,3,3,2,1,4,1,1,1,0,3,0,0
1771685328012000,1771685328012000,1771685328012000,1771684928340000,47.3977419,8.5455939,-0.04294101,0.0057121287,-0.028076172,0.004007112,-0.0025302004,-487.9847,-0.00052164117,0.032101717,-0.044221196,-0.05341115,-0.00090424286,0.00046052953,-0.0002578646,-0.018445352,-0.0100464225,-0.020136124,-0.003427833,0.00033535442,-0.009924099,-0.0090063345,1.897951e-05,487.9847,0.1000061,0.010000001,-487.9847,0.119887024,0.1127481,0.07998951,0.049184743,inf,inf,inf,inf,inf,160,1,1,1,1,3,3,2,1,4,1,1,1,0,3,0,0
1771685328020000,1771685328020000,1771685328020000,1771684928340000,47.3977419,8.5455939,-0.04292881,0.0057890615,-0.028259277,0.004007112,-0.0025302004,-487.9847,-0.0004750607,0.03234695,-0.043994874,-0.05300571,-0.00090424286,0.00046052953,-0.0002578646,0.0037310077,0.05115503,0.01894729,-0.0034973652,0.00033546088,-0.009993173,-0.0090063345,1.9023697e-05,487.9847,0.1000061,0.010000001,-487.9847,0.12028918,0.11299754,0.08028914,0.04926772,inf,inf,inf,inf,inf,160,1,1,1,1,3,3,2,1,4,1,1,1,0,3,0,0
1771685328028000,1771685328028000,1771685328028000,1771684928340000,47.3977419,8.5455939,-0.04291646,0.0058722473,-0.028442383,0.004007112,-0.0025302004,-487.9847,-0.00045612198,0.032588627,-0.044043228,-0.052877728,-0.00090424286,0.00046052953,-0.0002578646,0.000335438,0.050155167,-0.0151759,-0.0035370956,0.0003355674,-0.010032417,-0.0090063345,1.9067924e-05,487.9847,0.1000061,0.010000001,-487.9847,0.12069406,0.11324782,0.080588914,0.049350567,inf,inf,inf,inf,inf,160,1,1,1,1,3,3,2,1,4,1,1,1,0,3,0,0
1771685328036000,1771685328036000,1771685328036000,1771684928340000,47.3977419,8.5455939,-0.042906094,0.005960837,-0.028625488,0.004007112,-0.0025302004,-487.9847,-0.00066871924,0.03272194,-0.044231907,-0.052889828,-0.00090424286,0.00046052953,-0.0002578646,-0.028544957,0.036068525,-0.03259815,-0.0035639603,0.00033567406,-0.010058812,-0.0090063345,1.9112194e-05,487.9847,0.1000061,0.010000001,-487.9847,0.1211017,0.1134398,0.080887854,0.049422868,inf,inf,inf,inf,inf,160,1,1,1,1,3,3,2,1,4,1,1,1,0,3,0,0
1771685328044000,1771685328044000,1771685328044000,1771684928340000,47.3977419,8.5455939,-0.04289605,0.0060542603,-0.028808594,0.004007112,-0.0025302004,-487.9847,-0.000475781,0.032880127,-0.04408175,-0.05256598,-0.00090424286,0.00046052953,-0.0002578646,0.022209462,0.038647853,0.009958166,-0.0036227764,0.00033578064,-0.010117175,-0.0090063345,1.9156496e-05,487.9847,0.1000061,0.010000001,-487.9847,0.1215121,0.11369161,0.081187606,0.049505476,inf,inf,inf,inf,inf,160,1,1,1,1,3,3,2,1,4,1,1,1,0,3,0,0
1771685328052000,1771685328052000,1771685328052000,1771684928340000,47.3977419,8.5455939,-0.042886216,0.00615256,-0.028961182,0.004007112,-0.0025302004,-487.9847,-0.00050414633,0.032912303,-0.04404386,-0.052357204,-0.00090424286,0.00046052953,-0.0002578646,-0.005398827,0.02237805,-0.0038789583,-0.0036773677,0.00033588728,-0.01017133,-0.0090063345,1.9200834e-05,487.9847,0.1000061,0.010000001,-487.9847,0.12192525,0.11394426,0.08148914,0.049587958,inf,inf,inf,inf,inf,160,1,1,1,1,3,3,2,1,4,1,1,1,0,3,0,0
1771685328060000,1771685328060000,1771685328060000,1771684928340000,47.3977419,8.5455939,-0.042878095,0.0062365825,-0.029144287,0.004007112,-0.0025302004,-487.9847,-0.00026496418,0.03252796,-0.043804657,-0.051934958,-0.00090424286,0.00046052953,-0.0002578646,0.028424516,-0.026826194,0.019968951,-0.0036423637,0.00033508425,-0.010135905,-0.0090063345,1.8956089e-05,487.9847,0.1000061,0.010000001,-487.9847,0.11969013,0.11262505,0.079842664,0.049144298,inf,inf,inf,inf,inf,160,1,1,1,1,3,3,2,1,4,1,1,1,0,3,0,0
1771685328068000,1771685328068000,1771685328068000,1771684928340000,47.3977419,8.5455939,-0.042868722,0.006320649,-0.029296875,0.004007112,-0.0025302004,-487.9847,-0.00021410166,0.03226197,-0.043734744,-0.051685218,-0.00090424286,0.00046052953,-0.0002578646,0.0048921444,-0.012407168,-0.0009629875,-0.0036043974,0.0003350437,-0.0100983735,-0.0090063345,1.8998187e-05,487.9847,0.1000061,0.010000001,-487.9847,0.12009056,0.112874076,0.08014008,0.049227335,inf,inf,inf,inf,inf,160,1,1,1,1,3,3,2,1,4,1,1,1,0,3,0,0
1771685328076000,1771685328076000,1771685328076000,1771684928340000,47.3977419,8.5455939,-0.04286056,0.0064083426,-0.02947998,0.004007112,-0.0025302004,-487.9847,-0.000292182,0.032448966,-0.043517094,-0.05129087,-0.00090424286,0.00046052953,-0.0002578646,-0.011172286,0.043642536,0.017726792,-0.0036299701,0.00033515,-0.010122686,-0.0090063345,1.9042383e-05,487.9847,0.1000061,0.010000001,-487.9847,0.1204941,0.113123946,0.080439895,0.04931024,inf,inf,inf,inf,inf,160,1,1,1,1,3,3,2,1,4,1,1,1,0,3,0,0
1771685328084000,1771685328084000,1771685328084000,1771684928340000,47.3977419,8.5455939,-0.042852454,0.0064996043,-0.029632568,0.004007112,-0.0025302004,-487.9847,-0.0001872337,0.03211879,-0.043679398,-0.051274493,-0.00090424286,0.00046052953,-0.0002578646,0.01175525,-0.02155599,-0.02971338,-0.0036652465,0.0003352563,-0.0101567255,-0.0090063345,1.9086618e-05,487.9847,0.1000061,0.010000001,-487.9847,0.120900385,0.11331572,0.08073993,0.049382653,inf,inf,inf,inf,inf,160,1,1,1,1,3,3,2,1,4,1,1,1,0,3,0,0
1771685328092000,1771685328092000,1771685328092000,1771684928340000,47.3977419,8.5455939,-0.042845026,0.006592358,-0.029785156,0.004007112,-0.0025302004,-487.9847,-0.00029205205,0.03200832,-0.04357011,-0.050989658,-0.00090424286,0.00046052953,-0.0002578646,-0.014417246,0.00536961,0.004451256,-0.0037281062,0.00033536265,-0.010218356,-0.0090063345,1.913089e-05,487.9847,0.1000061,0.010000001,-487.9847,0.12130943,0.11356712,0.081040144,0.049465325,inf,inf,inf,inf,inf,160,1,1,1,1,3,3,2,1,4,1,1,1,0,3,0,0
1771685328100000,1771685328100000,1771685328100000,1771684928340000,47.3977419,8.5455939,-0.04283818,0.0066872267,-0.029968262,0.004007112,-0.0025302004,-487.9847,-0.00016349547,0.03162684,-0.04372159,-0.050968625,-0.00090424286,0.00046052953,-0.0002578646,0.014799352,-0.02903056,-0.027935484,-0.0036718014,0.00033546906,-0.01016083,-0.0090063345,1.91752e-05,487.9847,0.1000061,0.010000001,-487.9847,0.12172122,0.11381936,0.08134142,0.04954787,inf,inf,inf,inf,inf,160,1,1,1,1,3,3,2,1,4,1,1,1,0,3,0,0
1771685328108000,1771685328108000,1771685328108000,1771684928340000,47.3977419,8.5455939,-0.04283065,0.0067839446,-0.03012085,0.004007112,-0.0025302004,-487.9847,-4.6022444e-05,0.031698324,-0.043543093,-0.050621517,-0.00090424286,0.00046052953,-0.0002578646,0.013453731,0.02707834,0.013515352,-0.0036260309,0.00033557552,-0.010113845,-0.0090063345,1.9219548e-05,487.9847,0.1000061,0.010000001,-487.9847,0.122135796,0.114072435,0.081642196,0.049630288,inf,inf,inf,inf,inf,160,1,1,1,1,3,3,2,1,4,1,1,1,0,3,0,0
1771685328116000,1771685328116000,1771685328116000,1771684928340000,47.3977419,8.5455939,-0.0428211,0.00686003,-0.030273438,0.004007112,-0.0025302004,-487.9847,0.00033640562,0.03164873,-0.043205205,-0.050102953,-0.00090424286,0.00046052953,-0.0002578646,0.046483334,0.015178156,0.032069623,-0.003527784,0.00033565913,-0.0100143915,-0.0090063345,1.8983412e-05,487.9847,0.1000061,0.010000001,-487.9847,0.11988793,0.1127481,0.0799928,0.04918474,inf,inf,inf,inf,inf,160,1,1,1,1,3,3,2,1,4,1,1,1,0,3,0,0
1771685328124000,1771685328124000,1771685328124000,1771684928340000,47.3977419,8.5455939,-0.042810205,0.006942274,-0.030426025,0.004007112,-0.0025302004,-487.9847,0.0002748223,0.03217277,-0.04275792,-0.04947832,-0.00090424286,0.00046052953,-0.0002578646,-0.00905067,0.086256616,0.04598172,-0.003505516,0.0003348803,-0.009990638,-0.0090063345,1.901691e-05,487.9847,0.1000061,0.010000001,-487.9847,0.12028787,0.11299754,0.08028355,0.049267713,inf,inf,inf,inf,inf,160,1,1,1,1,3,3,2,1,4,1,1,1,0,3,0,0
1771685328132000,1771685328132000,1771685328132000,1771684928340000,47.3977419,8.5455939,-0.04280047,0.00703173,-0.030578613,0.004007112,-0.0025302004,-487.9847,0.00021778514,0.032490868,-0.042629078,-0.049176343,-0.00090424286,0.00046052953,-0.0002578646,-0.008435061,0.059946027,0.0064079645,-0.0035359252,0.00033498651,-0.010019287,-0.0090063345,1.9061124e-05,487.9847,0.1000061,0.010000001,-487.9847,0.12069273,0.11324781,0.0805831,0.04935056,inf,inf,inf,inf,inf,160,1,1,1,1,3,3,2,1,4,1,1,1,0,3,0,0
1771685328140000,1771685328140000,1771685328140000,1771684928340000,47.3977419,8.5455939,-0.042791385,0.0071272114,-0.030731201,0.004007112,-0.0025302004,-487.9847,0.00018118047,0.03271368,-0.042582687,-0.048956938,-0.00090424286,0.00046052953,-0.0002578646,-0.005839722,0.047478493,-0.0037997959,-0.0035599165,0.00033509277,-0.010041536,-0.0090063345,1.9105375e-05,487.9847,0.1000061,0.010000001,-487.9847,0.121100344,0.11343979,0.08088324,0.049422864,inf,inf,inf,inf,inf,160,1,1,1,1,3,3,2,1,4,1,1,1,0,3,0,0
1771685328148000,1771685328148000,1771685328148000,1771684928340000,47.3977419,8.5455939,-0.042783365,0.007227474,-0.030883789,0.004007112,-0.0025302004,-487.9847,0.00012942604,0.032752305,-0.042572156,-0.04877756,-0.00090424286,0.00046052953,-0.0002578646,-0.007690262,0.023914829,-0.008059665,-0.0035274222,0.00033519906,-0.010007317,-0.0090063345,1.9149664e-05,487.9847,0.1000061,0.010000001,-487.9847,0.1215107,0.113691606,0.08118323,0.04950547,inf,inf,inf,inf,inf,160,1,1,1,1,3,3,2,1,4,1,1,1,0,3,0,0
1771685328156000,1771685328156000,1771685328156000,1771684928340000,47.3977419,8.5455939,-0.042775825,0.007330772,-0.031036377,0.004007112,-0.0025302004,-487.9847,0.00010518826,0.03260324,-0.042343583,-0.04838422,-0.00090424286,0.00046052953,-0.0002578646,-0.0042096544,-7.0100206e-05,0.019411555,-0.0034939845,0.0003353054,-0.009972167,-0.0090063345,1.919399e-05,487.9847,0.1000061,0.010000001,-487.9847,0.121923834,0.113944255,0.0814836,0.04958795,inf,inf,inf,inf,inf,160,1,1,1,1,3,3,2,1,4,1,1,1,0,3,0,0
1771685328164000,1771685328164000,1771685328164000,1771684928340000,47.3977419,8.5455939,-0.04279065,0.0074074944,-0.031188965,0.004007112,-0.0025302004,-487.9847,-0.00035550568,0.03287571,-0.04240523,-0.04826922,-0.00090424286,0.00046052953,-0.0002578646,-0.05778284,0.05606611,-0.01819711,-0.0035040253,0.0003353891,-0.009980513,-0.0090063345,1.8960061e-05,487.9847,0.1000061,0.010000001,-487.9847,0.11969102,0.11262504,0.07984621,0.04914429,inf,inf,inf,inf,inf,160,1,1,1,1,3,3,2,1,4,1,1,1,0,3,0,0
1771685328172000,1771685328172000,1771685328172000,1771684928340000,47.3977419,8.5455939,-0.042807046,0.00748986,-0.031341553,0.004007112,-0.0025302004,-487.9847,-0.00016778763,0.0328661,-0.04234927,-0.048040148,-0.00090424286,0.00046052953,-0.0002578646,0.023286013,0.02020281,-0.0032475216,-0.0034612345,0.0003354955,-0.009935738,-0.0090063345,1.900423e-05,487.9847,0.1000061,0.010000001,-487.9847,0.12009185,0.11287407,0.0801451,0.04922733,inf,inf,inf,inf,inf,160,1,1,1,1,3,3,2,1,4,1,1,1,0,3,0,0
1771685328180000,1771685328180000,1771685328180000,1771684928340000,47.3977419,8.5455939,-0.042820584,0.0075751236,-0.031463623,0.004007112,-0.0025302004,-487.9847,0.000117326956,0.032708455,-0.04208488,-0.047606107,-0.00090424286,0.00046052953,-0.0002578646,0.03547757,0.0011124029,0.023048835,-0.0034620469,0.00033560197,-0.009934587,-0.0090063345,1.9048435e-05,487.9847,0.1000061,0.010000001,-487.9847,0.120495416,0.11312394,0.08044496,0.04931024,inf,inf,inf,inf,inf,160,1,1,1,1,3,3,2,1,4,1,1,1,0,3,0,0
1771685328188000,1771685328188000,1771685328188000,1771684928340000,47.3977419,8.5455939,-0.042832855,0.0076637757,-0.03161621,0.004007112,-0.0025302004,-487.9847,0.00028250852,0.032646563,-0.042074904,-0.047425807,-0.00090424286,0.00046052953,-0.0002578646,0.0205006,0.012512212,-0.008659436,-0.0035127797,0.00033570846,-0.009983381,-0.0090063345,1.9092677e-05,487.9847,0.1000061,0.010000001,-487.9847,0.12090173,0.1133157,0.08074535,0.049382653,inf,inf,inf,inf,inf,160,1,1,1,1,3,3,2,1,4,1,1,1,0,3,0,0
1771685328196000,1771685328196000,1771685328196000,1771684928340000,47.3977419,8.5455939,-0.04284169,0.0077545373,-0.0317688,0.004007112,-0.0025302004,-487.9847,0.00045156878,0.032511525,-0.042153195,-0.047337174,-0.00090424286,0.00046052953,-0.0002578646,0.02064827,0.0030087393,-0.019459518,-0.00351142,0.0003349294,-0.009980106,-0.0090063345,1.9126135e-05,487.9847,0.1000061,0.010000001,-487.9847,0.12130845,0.113567114,0.08103602,0.04946532,inf,inf,inf,inf,inf,160,1,1,1,1,3,3,2,1,4,1,1,1,0,3,0,0
1771685328204000,1771685328204000,1771685328204000,1771684928340000,47.3977419,8.5455939,-0.042849284,0.007847997,-0.03189087,0.004007112,-0.0025302004,-487.9847,0.0006105805,0.032395024,-0.042300317,-0.04732071,-0.00090424286,0.00046052953,-0.0002578646,0.019416252,0.0047808425,-0.02783723,-0.0035318078,0.00033503564,-0.010000311,-0.0090063345,1.9170442e-05,487.9847,0.1000061,0.010000001,-487.9847,0.12172023,0.11381935,0.081336364,0.049547866,inf,inf,inf,inf,inf,160,1,1,1,1,3,3,2,1,4,1,1,1,0,3,0,0
1771685328212000,1771685328212000,1771685328212000,1771684928340000,47.3977419,8.5455939,-0.04285495,0.007945678,-0.032043457,0.004007112,-0.0025302004,-487.9847,0.00092911517,0.03262152,-0.042088874,-0.04694896,-0.00090424286,0.00046052953,-0.0002578646,0.039377272,0.047125652,0.017203389,-0.0035009144,0.00033514193,-0.009969257,-0.0090063345,1.9214787e-05,487.9847,0.1000061,0.010000001,-487.9847,0.12213478,0.11407243,0.0816366,0.04963028,inf,inf,inf,inf,inf,160,1,1,1,1,3,3,2,1,4,1,1,1,0,3,0,0
1771685328220000,1771685328220000,1771685328220000,1771684928340000,47.3977419,8.5455939,-0.04285905,0.008024577,-0.032196045,0.004007112,-0.0025302004,-487.9847,0.0006385305,0.03287178,-0.042138003,-0.046834197,-0.00090424286,0.00046052953,-0.0002578646,-0.036885668,0.053235278,-0.016387084,-0.0034006154,0.0003352251,-0.009868821,-0.0090063345,1.8978833e-05,487.9847,0.1000061,0.010000001,-487.9847,0.11988705,0.112748094,0.07998711,0.049184732,inf,inf,inf,inf,inf,160,1,1,1,1,3,3,2,1,4,1,1,1,0,3,0,0
1771685328228000,1771685328228000,1771685328228000,1771684928340000,47.3977419,8.5455939,-0.042865094,0.00810971,-0.032348633,0.004007112,-0.0025302004,-487.9847,0.0006242678,0.033080097,-0.04239479,-0.046930585,-0.00090424286,0.00046052953,-0.0002578646,-0.0023200207,0.047393978,-0.0421009,-0.0034199946,0.00033533145,-0.009887768,-0.0090063345,1.9023017e-05,487.9847,0.1000061,0.010000001,-487.9847,0.120289184,0.11299753,0.08028607,0.04926771,inf,inf,inf,inf,inf,160,1,1,1,1,3,3,2,1,4,1,1,1,0,3,0,0
1771685328236000,1771685328236000,1771685328236000,1771684928340000,47.3977419,8.5455939,-0.042870127,0.008200098,-0.03250122,0.004007112,-0.0025302004,-487.9847,0.00079147896,0.03329507,-0.04276819,-0.047146983,-0.00090424286,0.00046052953,-0.0002578646,0.020393103,0.04763983,-0.056440473,-0.0034040264,0.00033543786,-0.009871413,-0.0090063345,1.906724e-05,487.9847,0.1000061,0.010000001,-487.9847,0.12069406,0.113247804,0.08058633,0.049350556,inf,inf,inf,inf,inf,160,1,1,1,1,3,3,2,1,4,1,1,1,0,3,0,0
1771685328244000,1771685328244000,1771685328244000,1771684928340000,47.3977419,8.5455939,-0.042873774,0.0082968995,-0.03262329,0.004007112,-0.0025302004,-487.9847,0.0009933071,0.033596512,-0.042682674,-0.046904758,-0.00090424286,0.00046052953,-0.0002578646,0.024745308,0.05787952,0.0010547227,-0.0034498833,0.00033554435,-0.009916927,-0.0090063345,1.9111503e-05,487.9847,0.1000061,0.010000001,-487.9847,0.12110169,0.11343978,0.08088609,0.049422856,inf,inf,inf,inf,inf,160,1,1,1,1,3,3,2,1,4,1,1,1,0,3,0,0
1771685328252000,1771685328252000,1771685328252000,1771684928340000,47.3977419,8.5455939,-0.042876873,0.008398866,-0.03277588,0.004007112,-0.0025302004,-487.9847,0.0008005216,0.033706974,-0.043059606,-0.047128297,-0.00090424286,0.00046052953,-0.0002578646,-0.024552455,0.033455055,-0.056524757,-0.0034550924,0.0003356508,-0.009921837,-0.0090063345,1.91558e-05,487.9847,0.1000061,0.010000001,-487.9847,0.121512085,0.1136916,0.08118688,0.04950546,inf,inf,inf,inf,inf,160,1,1,1,1,3,3,2,1,4,1,1,1,0,3,0,0
1771685328260000,1771685328260000,1771685328260000,1771684928340000,47.3977419,8.5455939,-0.042883277,0.0085055,-0.032958984,0.004007112,-0.0025302004,-487.9847,0.00050739176,0.033967182,-0.043346997,-0.04726553,-0.00090424286,0.00046052953,-0.0002578646,-0.037013404,0.051803358,-0.0451114,-0.003464624,0.00033487237,-0.009931112,-0.0090063345,1.9189236e-05,487.9847,0.1000061,0.010000001,-487.9847,0.1219228,0.11394425,0.0814777,0.049587943,inf,inf,inf,inf,inf,160,1,1,1,1,3,3,2,1,4,1,1,1,0,3,0,0
1771685328268000,1771685328268000,1771685328268000,1771684928340000,47.3977419,8.5455939,-0.04287756,0.008572442,-0.033111572,0.004007112,-0.0025302004,-487.9847,0.00084768934,0.034259513,-0.04377805,-0.04753982,-0.00090424286,0.00046052953,-0.0002578646,0.041471954,0.060117923,-0.064173706,-0.0034803546,0.00033480892,-0.009948024,-0.0090063345,1.8953433e-05,487.9847,0.1000061,0.010000001,-487.9847,0.11968978,0.11262503,0.07983817,0.049144283,inf,inf,inf,inf,inf,160,1,1,1,1,3,3,2,1,4,1,1,1,0,3,0,0
1771685328276000,1771685328276000,1771685328276000,1771684928340000,47.3977419,8.5455939,-0.042870574,0.008645215,-0.03326416,0.004007112,-0.0025302004,-487.9847,0.00091088325,0.034125168,-0.043680955,-0.0472896,-0.00090424286,0.00046052953,-0.0002578646,0.0068695657,0.006136191,0.0020917503,-0.0035182224,0.00033491504,-0.009987138,-0.0090063345,1.899759e-05,487.9847,0.1000061,0.010000001,-487.9847,0.12009057,0.11287406,0.080136426,0.049227323,inf,inf,inf,inf,inf,160,1,1,1,1,3,3,2,1,4,1,1,1,0,3,0,0
1771685328284000,1771685328284000,1771685328284000,1771684928340000,47.3977419,8.5455939,-0.04286458,0.008720117,-0.033416748,0.004007112,-0.0025302004,-487.9847,0.00071361876,0.03380293,-0.043581758,-0.04704088,-0.00090424286,0.00046052953,-0.0002578646,-0.025647422,-0.017969843,0.0025946645,-0.0034581511,0.00033502132,-0.009928366,-0.0090063345,1.9041789e-05,487.9847,0.1000061,0.010000001,-487.9847,0.1204941,0.11312393,0.080435745,0.049310237,inf,inf,inf,inf,inf,160,1,1,1,1,3,3,2,1,4,1,1,1,0,3,0,0
1771685328292000,1771685328292000,1771685328292000,1771684928340000,47.3977419,8.5455939,-0.042859238,0.008799153,-0.033569336,0.004007112,-0.0025302004,-487.9847,0.00087687327,0.034038983,-0.04363978,-0.046949893,-0.00090424286,0.00046052953,-0.0002578646,0.019456418,0.05120902,-0.01692958,-0.003407531,0.0003351274,-0.009879101,-0.0090063345,1.9086014e-05,487.9847,0.1000061,0.010000001,-487.9847,0.12090037,0.113315694,0.080735564,0.04938265,inf,inf,inf,inf,inf,160,1,1,1,1,3,3,2,1,4,1,1,1,0,3,0,0
