timestamp,pub_timestamp,timestamp_sample,ref_timestamp,ref_lat,ref_lon,x,y,z,delta_xy[0],delta_xy[1],delta_z,vx,vy,vz,z_deriv,delta_vxy[0],delta_vxy[1],delta_vz,ax,ay,az,heading,heading_var,unaided_heading,delta_heading,tilt_var,ref_alt,dist_bottom,dist_bottom_var,delta_dist_bottom,eph,epv,evh,evv,vxy_max,vz_max,hagl_min,hagl_max_z,hagl_max_xy,publisher_id,xy_valid,z_valid,v_xy_valid,v_z_valid,xy_reset_counter,z_reset_counter,vxy_reset_counter,vz_reset_counter,heading_reset_counter,heading_good_for_control,xy_global,z_global,dist_bottom_valid,dist_bottom_reset_counter,dist_bottom_sensor_bitfield,dead_reckoning
1771685725404000,1771685725404000,1771685725404000,1771684928340000,47.3977419,8.5455939,0.03138342,0.043551147,-0.009002686,0.004007112,-0.0025302004,-487.9847,-0.0037507573,-0.013141539,-0.04294327,-0.06775836,-0.00090424286,0.00046052953,-0.0002578646,0.03059422,0.024346586,-0.020189209,0.023294073,0.00032078475,0.003519868,0.005365688,1.8223873e-05,487.9847,0.1000061,0.010000001,-487.9847,0.120289624,0.11299669,0.08027203,0.049266566,inf,inf,inf,inf,inf,160,1,1,1,1,3,3,2,1,6,1,1,1,0,3,0,0
1771685725412000,1771685725412000,1771685725412000,1771684928340000,47.3977419,8.5455939,0.031317294,0.04349908,-0.009277344,0.004007112,-0.0025302004,-487.9847,-0.0037198558,-0.0129999155,-0.042766225,-0.06739495,-0.00090424286,0.00046052953,-0.0002578646,0.0051243785,0.01118028,0.01703575,0.023325605,0.00032089255,0.0035502291,0.005365688,1.826811e-05,487.9847,0.1000061,0.010000001,-487.9847,0.12069444,0.113246955,0.08057258,0.04934941,inf,inf,inf,inf,inf,160,1,1,1,1,3,3,2,1,6,1,1,1,0,3,0,0
1771685725420000,1771685725420000,1771685725420000,1771684928340000,47.3977419,8.5455939,0.03125336,0.043446135,-0.009552002,0.004007112,-0.0025302004,-487.9847,-0.0036025064,-0.013211308,-0.042521395,-0.066961266,-0.00090424286,0.00046052953,-0.0002578646,0.015879067,-0.032760292,0.025508458,0.023407431,0.00032100047,0.0036308034,0.005365688,1.8312392e-05,487.9847,0.1000061,0.010000001,-487.9847,0.12110202,0.113438934,0.08087242,0.049421705,inf,inf,inf,inf,inf,160,1,1,1,1,3,3,2,1,6,1,1,1,0,3,0,0
1771685725428000,1771685725428000,1771685725428000,1771684928340000,47.3977419,8.5455939,0.031191763,0.043388292,-0.00982666,0.004007112,-0.0025302004,-487.9847,-0.0033078827,-0.013692206,-0.04260724,-0.06685791,-0.00090424286,0.00046052953,-0.0002578646,0.03798848,-0.066261925,-0.015763564,0.023391146,0.00032110835,0.0036132014,0.005365688,1.8356706e-05,487.9847,0.1000061,0.010000001,-487.9847,0.12151235,0.11369074,0.08117299,0.049504306,inf,inf,inf,inf,inf,160,1,1,1,1,3,3,2,1,6,1,1,1,0,3,0,0
1771685725436000,1771685725436000,1771685725436000,1771684928340000,47.3977419,8.5455939,0.031132618,0.043327957,-0.010101318,0.004007112,-0.0025302004,-487.9847,-0.0034405151,-0.013719232,-0.04237278,-0.06643394,-0.00090424286,0.00046052953,-0.0002578646,-0.015463861,-0.009344684,0.024335457,0.023369713,0.00032121627,0.0035903673,0.005365688,1.8401057e-05,487.9847,0.1000061,0.010000001,-487.9847,0.12192545,0.11394338,0.0814736,0.049586784,inf,inf,inf,inf,inf,160,1,1,1,1,3,3,2,1,6,1,1,1,0,3,0,0
1771685725444000,1771685725444000,1771685725444000,1771684928340000,47.3977419,8.5455939,0.03107663,0.043279108,-0.010375977,0.004007112,-0.0025302004,-487.9847,-0.0037598023,-0.013667959,-0.04243103,-0.06631374,-0.00090424286,0.00046052953,-0.0002578646,-0.03925896,-0.0010989951,-0.012729316,0.023351477,0.00032130527,0.0035706717,0.005365688,1.8167113e-05,487.9847,0.1000061,0.010000001,-487.9847,0.11969266,0.112624206,0.07983612,0.049143158,inf,inf,inf,inf,inf,160,1,1,1,1,3,3,2,1,6,1,1,1,0,3,0,0
1771685725452000,1771685725452000,1771685725452000,1771684928340000,47.3977419,8.5455939,0.031018311,0.043230087,-0.010650635,0.004007112,-0.0025302004,-487.9847,-0.0038180265,-0.013556471,-0.042509954,-0.0662137,-0.00090424286,0.00046052953,-0.0002578646,-0.0063115545,0.0065370654,-0.015240627,0.023357006,0.00032052427,0.0035745366,0.005365688,1.820061e-05,487.9847,0.1000061,0.010000001,-487.9847,0.12009126,0.11287322,0.08012632,0.049226187,inf,inf,inf,inf,inf,160,1,1,1,1,3,3,2,1,6,1,1,1,0,3,0,0
1771685725460000,1771685725460000,1771685725460000,1771684928340000,47.3977419,8.5455939,0.030960178,0.04318007,-0.010925293,0.004007112,-0.0025302004,-487.9847,-0.003984887,-0.013602037,-0.042287026,-0.06581129,-0.00090424286,0.00046052953,-0.0002578646,-0.019931735,-0.012888017,0.022562684,0.023385152,0.00032063198,0.003601845,0.005365688,1.8244828e-05,487.9847,0.1000061,0.010000001,-487.9847,0.120494746,0.11312308,0.08042667,0.049309094,inf,inf,inf,inf,inf,160,1,1,1,1,3,3,2,1,6,1,1,1,0,3,0,0
1771685725468000,1771685725468000,1771685725468000,1771684928340000,47.3977419,8.5455939,0.030902373,0.043129314,-0.011199951,0.004007112,-0.0025302004,-487.9847,-0.004033291,-0.0134601565,-0.0426108,-0.06595305,-0.00090424286,0.00046052953,-0.0002578646,-0.0051606838,0.010747736,-0.045785677,0.023415547,0.0003207396,0.0036313473,0.005365688,1.8289076e-05,487.9847,0.1000061,0.010000001,-487.9847,0.12090099,0.113314845,0.08072699,0.049381502,inf,inf,inf,inf,inf,160,1,1,1,1,3,3,2,1,6,1,1,1,0,3,0,0
1771685725476000,1771685725476000,1771685725476000,1771684928340000,47.3977419,8.5455939,0.030845633,0.043077573,-0.011444092,0.004007112,-0.0025302004,-487.9847,-0.0039363205,-0.013498154,-0.04282009,-0.06597988,-0.00090424286,0.00046052953,-0.0002578646,0.0129729295,-0.011542271,-0.031403728,0.02347783,0.0003208473,0.003692675,0.005365688,1.8333365e-05,487.9847,0.1000061,0.010000001,-487.9847,0.12130998,0.11356624,0.0810279,0.049464166,inf,inf,inf,inf,inf,160,1,1,1,1,3,3,2,1,6,1,1,1,0,3,0,0
1771685725484000,1771685725484000,1771685725484000,1771684928340000,47.3977419,8.5455939,0.030790977,0.043025125,-0.01171875,0.004007112,-0.0025302004,-487.9847,-0.0038456975,-0.013335368,-0.042733595,-0.065710485,-0.00090424286,0.00046052953,-0.0002578646,0.012138264,0.013738857,0.005637295,0.023531454,0.00032095512,0.0037453729,0.005365688,1.83777e-05,487.9847,0.1000061,0.010000001,-487.9847,0.12172174,0.11381848,0.08132903,0.0495467,inf,inf,inf,inf,inf,160,1,1,1,1,3,3,2,1,6,1,1,1,0,3,0,0
1771685725492000,1771685725492000,1771685725492000,1771684928340000,47.3977419,8.5455939,0.030736983,0.04297361,-0.011993408,0.004007112,-0.0025302004,-487.9847,-0.003960717,-0.012969171,-0.042451285,-0.065244846,-0.00090424286,0.00046052953,-0.0002578646,-0.013603064,0.03934565,0.030181369,0.023519078,0.00032106298,0.0037320997,0.005365688,1.842207e-05,487.9847,0.1000061,0.010000001,-487.9847,0.122136265,0.11407155,0.08162939,0.04962911,inf,inf,inf,inf,inf,160,1,1,1,1,3,3,2,1,6,1,1,1,0,3,0,0
1771685725500000,1771685725500000,1771685725500000,1771684928340000,47.3977419,8.5455939,0.030678209,0.042935148,-0.012268066,0.004007112,-0.0025302004,-487.9847,-0.0038237332,-0.012913034,-0.042155948,-0.06478011,-0.00090424286,0.00046052953,-0.0002578646,0.017928343,-0.00088972313,0.031402797,0.023485424,0.0003211518,0.0036975793,0.005365688,1.8186049e-05,487.9847,0.1000061,0.010000001,-487.9847,0.11988853,0.11274726,0.07998044,0.049183592,inf,inf,inf,inf,inf,160,1,1,1,1,3,3,2,1,6,1,1,1,0,3,0,0
1771685725508000,1771685725508000,1771685725508000,1771684928340000,47.3977419,8.5455939,0.030620802,0.042896178,-0.012542725,0.004007112,-0.0025302004,-487.9847,-0.003921706,-0.012695028,-0.042076502,-0.064530455,-0.00090424286,0.00046052953,-0.0002578646,-0.0114754755,0.019563418,0.0044940966,0.023491155,0.00032125975,0.0037023681,0.005365688,1.823026e-05,487.9847,0.1000061,0.010000001,-487.9847,0.120290644,0.11299669,0.080279835,0.049266562,inf,inf,inf,inf,inf,160,1,1,1,1,3,3,2,1,6,1,1,1,0,3,0,0
1771685725516000,1771685725516000,1771685725516000,1771684928340000,47.3977419,8.5455939,0.030562893,0.0428579,-0.012817383,0.004007112,-0.0025302004,-487.9847,-0.0043973946,-0.012693199,-0.041651193,-0.06393419,-0.00090424286,0.00046052953,-0.0002578646,-0.058831744,-0.0074323285,0.047802456,0.023548026,0.0003204794,0.0037583127,0.005365688,1.8263738e-05,487.9847,0.1000061,0.010000001,-487.9847,0.12069323,0.113246955,0.08057057,0.0493494,inf,inf,inf,inf,inf,160,1,1,1,1,3,3,2,1,6,1,1,1,0,3,0,0
1771685725524000,1771685725524000,1771685725524000,1771684928340000,47.3977419,8.5455939,0.030502964,0.04281686,-0.013061523,0.004007112,-0.0025302004,-487.9847,-0.004464673,-0.013031905,-0.04226976,-0.06437805,-0.00090424286,0.00046052953,-0.0002578646,-0.007819793,-0.049780414,-0.08271215,0.023559842,0.00032058707,0.003770675,0.005365688,1.8308014e-05,487.9847,0.1000061,0.010000001,-487.9847,0.12110078,0.113438934,0.08087098,0.049421698,inf,inf,inf,inf,inf,160,1,1,1,1,3,3,2,1,6,1,1,1,0,3,0,0
1771685725532000,1771685725532000,1771685725532000,1771684928340000,47.3977419,8.5455939,0.030446345,0.042772736,-0.013336182,0.004007112,-0.0025302004,-487.9847,-0.0040880754,-0.012974866,-0.04255611,-0.06448911,-0.00090424286,0.00046052953,-0.0002578646,0.047625184,-0.00010076473,-0.041110437,0.023596106,0.00032069482,0.0038075033,0.005365688,1.8352326e-05,487.9847,0.1000061,0.010000001,-487.9847,0.12151111,0.11369074,0.081171386,0.0495043,inf,inf,inf,inf,inf,160,1,1,1,1,3,3,2,1,6,1,1,1,0,3,0,0
1771685725540000,1771685725540000,1771685725540000,1771684928340000,47.3977419,8.5455939,0.030390754,0.04272912,-0.01361084,0.004007112,-0.0025302004,-487.9847,-0.0043546464,-0.012766746,-0.042669266,-0.06442644,-0.00090424286,0.00046052953,-0.0002578646,-0.032796968,0.01899242,-0.019387806,0.023595154,0.0003208026,0.0038071289,0.005365688,1.8396679e-05,487.9847,0.1000061,0.010000001,-487.9847,0.121924184,0.11394338,0.08147166,0.049586777,inf,inf,inf,inf,inf,160,1,1,1,1,3,3,2,1,6,1,1,1,0,3,0,0
1771685725548000,1771685725548000,1771685725548000,1771684928340000,47.3977419,8.5455939,0.030339228,0.042697318,-0.013885498,0.004007112,-0.0025302004,-487.9847,-0.0045822687,-0.012632316,-0.04297802,-0.06458321,-0.00090424286,0.00046052953,-0.0002578646,-0.02849677,0.008365529,-0.0439072,0.023602705,0.00032089127,0.003815278,0.005365688,1.8162831e-05,487.9847,0.1000061,0.010000001,-487.9847,0.119691506,0.112624206,0.079834655,0.04914315,inf,inf,inf,inf,inf,160,1,1,1,1,3,3,2,1,6,1,1,1,0,3,0,0
1771685725556000,1771685725556000,1771685725556000,1771684928340000,47.3977419,8.5455939,0.03028731,0.04266608,-0.014190674,0.004007112,-0.0025302004,-487.9847,-0.004578395,-0.012088471,-0.042671416,-0.06412336,-0.00090424286,0.00046052953,-0.0002578646,0.00047450972,0.0598843,0.033085696,0.023525037,0.00032084747,0.0037380992,0.005365688,1.8204944e-05,487.9847,0.1000061,0.010000001,-487.9847,0.120091915,0.11287322,0.08013271,0.04922618,inf,inf,inf,inf,inf,160,1,1,1,1,3,3,2,1,6,1,1,1,0,3,0,0
1771685725564000,1771685725564000,1771685725564000,1771684928340000,47.3977419,8.5455939,0.030236078,0.042638164,-0.014465332,0.004007112,-0.0025302004,-487.9847,-0.0045965095,-0.01153332,-0.042657465,-0.063954994,-0.00090424286,0.00046052953,-0.0002578646,-0.0022907178,0.061526906,-0.0034240072,0.023510762,0.0003209552,0.003724746,0.005365688,1.8249164e-05,487.9847,0.1000061,0.010000001,-487.9847,0.12049543,0.11312308,0.08043186,0.049309082,inf,inf,inf,inf,inf,160,1,1,1,1,3,3,2,1,6,1,1,1,0,3,0,0
1771685725572000,1771685725572000,1771685725572000,1771684928340000,47.3977419,8.5455939,0.030187348,0.042612385,-0.01473999,0.004007112,-0.0025302004,-487.9847,-0.004236689,-0.01115993,-0.042710837,-0.06384988,-0.00090424286,0.00046052953,-0.0002578646,0.04493938,0.03902425,-0.011875293,0.023525327,0.000321063,0.0037402562,0.005365688,1.829342e-05,487.9847,0.1000061,0.010000001,-487.9847,0.1209017,0.113314845,0.08073115,0.04938149,inf,inf,inf,inf,inf,160,1,1,1,1,3,3,2,1,6,1,1,1,0,3,0,0
1771685725580000,1771685725580000,1771685725580000,1771684928340000,47.3977419,8.5455939,0.03014059,0.042587537,-0.015014648,0.004007112,-0.0025302004,-487.9847,-0.004237849,-0.010988863,-0.042471163,-0.06345087,-0.00090424286,0.00046052953,-0.0002578646,-0.00019947856,0.0139450645,0.024827195,0.023448147,0.00032117084,0.0036640405,0.005365688,1.8337712e-05,487.9847,0.1000061,0.010000001,-487.9847,0.12131071,0.11356624,0.08103168,0.049464155,inf,inf,inf,inf,inf,160,1,1,1,1,3,3,2,1,6,1,1,1,0,3,0,0
1771685725588000,1771685725588000,1771685725588000,1771684928340000,47.3977419,8.5455939,0.03009187,0.042565055,-0.015289307,0.004007112,-0.0025302004,-487.9847,-0.0042319503,-0.010828399,-0.042323004,-0.06314261,-0.00090424286,0.00046052953,-0.0002578646,0.0012308428,0.01230808,0.013458076,0.023380723,0.00032039118,0.0035976018,0.005365688,1.8371138e-05,487.9847,0.1000061,0.010000001,-487.9847,0.12172006,0.11381848,0.08132195,0.049546693,inf,inf,inf,inf,inf,160,1,1,1,1,3,3,2,1,6,1,1,1,0,3,0,0
1771685725596000,1771685725596000,1771685725596000,1771684928340000,47.3977419,8.5455939,0.030044442,0.042541858,-0.015563965,0.004007112,-0.0025302004,-487.9847,-0.0041455003,-0.0107874,-0.042409915,-0.06306875,-0.00090424286,0.00046052953,-0.0002578646,0.011272899,-0.0024121027,-0.015858093,0.023339693,0.00032049874,0.0035619247,0.005365688,1.8415496e-05,487.9847,0.1000061,0.010000001,-487.9847,0.122134544,0.11407155,0.0816226,0.0496291,inf,inf,inf,inf,inf,160,1,1,1,1,3,3,2,1,6,1,1,1,0,3,0,0
1771685725604000,1771685725604000,1771685725604000,1771684928340000,47.3977419,8.5455939,0.030011699,0.04252255,-0.015838623,0.004007112,-0.0025302004,-487.9847,-0.004483303,-0.010898499,-0.04232629,-0.062846,-0.00090424286,0.00046052953,-0.0002578646,-0.0428408,-0.022479262,0.005299225,0.02324539,0.0003205869,0.003473002,0.005365688,1.8179671e-05,487.9847,0.1000061,0.010000001,-487.9847,0.11988702,0.11274726,0.07997414,0.049183585,inf,inf,inf,inf,inf,160,1,1,1,1,3,3,2,1,6,1,1,1,0,3,0,0
1771685725612000,1771685725612000,1771685725612000,1771684928340000,47.3977419,8.5455939,0.029977273,0.042501453,-0.016143799,0.004007112,-0.0025302004,-487.9847,-0.004670765,-0.010752163,-0.04236411,-0.06274334,-0.00090424286,0.00046052953,-0.0002578646,-0.024040679,0.009927979,-0.009810085,0.023228977,0.0003206944,0.0034619062,0.005365688,1.822386e-05,487.9847,0.1000061,0.010000001,-487.9847,0.120289095,0.11299669,0.08027291,0.04926655,inf,inf,inf,inf,inf,160,1,1,1,1,3,3,2,1,6,1,1,1,0,3,0,0
1771685725620000,1771685725620000,1771685725620000,1771684928340000,47.3977419,8.5455939,0.029941969,0.042481363,-0.016418457,0.004007112,-0.0025302004,-487.9847,-0.004816357,-0.010480153,-0.042273697,-0.06251119,-0.00090424286,0.00046052953,-0.0002578646,-0.018798282,0.025865288,0.0062882896,0.02324002,0.0003208021,0.00347829,0.005365688,1.8268096e-05,487.9847,0.1000061,0.010000001,-487.9847,0.12069392,0.113246955,0.08057343,0.04934939,inf,inf,inf,inf,inf,160,1,1,1,1,3,3,2,1,6,1,1,1,0,3,0,0
1771685725628000,1771685725628000,1771685725628000,1771684928340000,47.3977419,8.5455939,0.029906377,0.042460114,-0.016693115,0.004007112,-0.0025302004,-487.9847,-0.004784772,-0.010613955,-0.04217192,-0.06226038,-0.00090424286,0.00046052953,-0.0002578646,0.0033537224,-0.024631955,0.0075707207,0.023188384,0.00032090984,0.003432007,0.005365688,1.831237e-05,487.9847,0.1000061,0.010000001,-487.9847,0.1211015,0.113438934,0.08087401,0.04942169,inf,inf,inf,inf,inf,160,1,1,1,1,3,3,2,1,6,1,1,1,0,3,0,0
1771685725636000,1771685725636000,1771685725636000,1771684928340000,47.3977419,8.5455939,0.029870752,0.042438015,-0.016967773,0.004007112,-0.0025302004,-487.9847,-0.0049657323,-0.010377031,-0.04194191,-0.061880346,-0.00090424286,0.00046052953,-0.0002578646,-0.023212941,0.021930782,0.02367189,0.02320813,0.0003210176,0.0034571136,0.005365688,1.835668e-05,487.9847,0.1000061,0.010000001,-487.9847,0.12151184,0.11369074,0.081174105,0.04950429,inf,inf,inf,inf,inf,160,1,1,1,1,3,3,2,1,6,1,1,1,0,3,0,0
1771685725644000,1771685725644000,1771685725644000,1771684928340000,47.3977419,8.5455939,0.029833475,0.04241613,-0.017242432,0.004007112,-0.0025302004,-487.9847,-0.005272433,-0.010202855,-0.042209927,-0.061997466,-0.00090424286,0.00046052953,-0.0002578646,-0.03892688,0.014301365,-0.038511116,0.02329482,0.0003211254,0.0035491898,0.005365688,1.8401028e-05,487.9847,0.1000061,0.010000001,-487.9847,0.12192493,0.11394338,0.081473865,0.049586765,inf,inf,inf,inf,inf,160,1,1,1,1,3,3,2,1,6,1,1,1,0,3,0,0
1771685725652000,1771685725652000,1771685725652000,1771684928340000,47.3977419,8.5455939,0.029798113,0.042406727,-0.01751709,0.004007112,-0.0025302004,-487.9847,-0.0057322113,-0.0100642685,-0.04216569,-0.061808854,-0.00090424286,0.00046052953,-0.0002578646,-0.058650997,0.008460008,-0.00013178213,0.023333635,0.0003203272,0.003593394,0.005365688,1.8156456e-05,487.9847,0.1000061,0.010000001,-487.9847,0.11969002,0.112624206,0.07982709,0.04914314,inf,inf,inf,inf,inf,160,1,1,1,1,3,3,2,1,6,1,1,1,0,3,0,0
1771685725660000,1771685725660000,1771685725660000,1771684928340000,47.3977419,8.5455939,0.029761786,0.042396184,-0.017791748,0.004007112,-0.0025302004,-487.9847,-0.0056050587,-0.009975902,-0.04209011,-0.061588053,-0.00090424286,0.00046052953,-0.0002578646,0.014732874,0.0024205672,0.0038733704,0.023298757,0.00032043474,0.0035641524,0.005365688,1.8200635e-05,487.9847,0.1000061,0.010000001,-487.9847,0.120090775,0.11287322,0.080126114,0.04922617,inf,inf,inf,inf,inf,160,1,1,1,1,3,3,2,1,6,1,1,1,0,3,0,0
1771685725668000,1771685725668000,1771685725668000,1771684928340000,47.3977419,8.5455939,0.029726513,0.042385593,-0.018066406,0.004007112,-0.0025302004,-487.9847,-0.005504991,-0.009865601,-0.042120554,-0.061472543,-0.00090424286,0.00046052953,-0.0002578646,0.011365201,0.005397043,-0.009293667,0.023325492,0.00032054237,0.0035965513,0.005365688,1.8244857e-05,487.9847,0.1000061,0.010000001,-487.9847,0.12049426,0.11312308,0.08042437,0.04930907,inf,inf,inf,inf,inf,160,1,1,1,1,3,3,2,1,6,1,1,1,0,3,0,0
1771685725676000,1771685725676000,1771685725676000,1771684928340000,47.3977419,8.5455939,0.029692257,0.042373985,-0.018341064,0.004007112,-0.0025302004,-487.9847,-0.005472424,-0.009740006,-0.042193633,-0.061394975,-0.00090424286,0.00046052953,-0.0002578646,0.0029483698,0.007536885,-0.014664139,0.023323646,0.00032065,0.0036003697,0.005365688,1.8289109e-05,487.9847,0.1000061,0.010000001,-487.9847,0.12090048,0.113314845,0.080725774,0.04938148,inf,inf,inf,inf,inf,160,1,1,1,1,3,3,2,1,6,1,1,1,0,3,0,0
1771685725684000,1771685725684000,1771685725684000,1771684928340000,47.3977419,8.5455939,0.029658144,0.04236225,-0.018585205,0.004007112,-0.0025302004,-487.9847,-0.0054148035,-0.009600773,-0.042272285,-0.061322376,-0.00090424286,0.00046052953,-0.0002578646,0.0060988083,0.009464534,-0.015276018,0.023265496,0.00032075765,0.0035478654,0.005365688,1.8333401e-05,487.9847,0.1000061,0.010000001,-487.9847,0.12130947,0.11356624,0.08102681,0.049464144,inf,inf,inf,inf,inf,160,1,1,1,1,3,3,2,1,6,1,1,1,0,3,0,0
1771685725692000,1771685725692000,1771685725692000,1771684928340000,47.3977419,8.5455939,0.029625038,0.042349983,-0.018859863,0.004007112,-0.0025302004,-487.9847,-0.005331563,-0.009550674,-0.042586047,-0.061484285,-0.00090424286,0.00046052953,-0.0002578646,0.009322011,-0.0014593014,-0.044582408,0.023254251,0.00032086534,0.003542244,0.005365688,1.837773e-05,487.9847,0.1000061,0.010000001,-487.9847,0.12172121,0.11381848,0.08132738,0.049546678,inf,inf,inf,inf,inf,160,1,1,1,1,3,3,2,1,6,1,1,1,0,3,0,0
1771685725700000,1771685725700000,1771685725700000,1771684928340000,47.3977419,8.5455939,0.029591449,0.042336985,-0.019134521,0.004007112,-0.0025302004,-487.9847,-0.0056330003,-0.009384155,-0.042823173,-0.061568953,-0.00090424286,0.00046052953,-0.0002578646,-0.03874277,0.013312147,-0.034922265,0.023293031,0.00032097314,0.003586616,0.005365688,1.8422103e-05,487.9847,0.1000061,0.010000001,-487.9847,0.12213572,0.11407155,0.08162878,0.04962909,inf,inf,inf,inf,inf,160,1,1,1,1,3,3,2,1,6,1,1,1,0,3,0,0
1771685725708000,1771685725708000,1771685725708000,1771684928340000,47.3977419,8.5455939,0.029559685,0.042341992,-0.01940918,0.004007112,-0.0025302004,-487.9847,-0.0060646366,-0.009314156,-0.04299996,-0.061593954,-0.00090424286,0.00046052953,-0.0002578646,-0.055548575,-0.0003521254,-0.028253531,0.023321923,0.00032106202,0.0036210767,0.005365688,1.8186096e-05,487.9847,0.1000061,0.010000001,-487.9847,0.11988805,0.11274726,0.07997906,0.049183574,inf,inf,inf,inf,inf,160,1,1,1,1,3,3,2,1,6,1,1,1,0,3,0,0
1771685725716000,1771685725716000,1771685725716000,1771684928340000,47.3977419,8.5455939,0.029525865,0.042345688,-0.01965332,0.004007112,-0.0025302004,-487.9847,-0.006163808,-0.00923472,-0.043111447,-0.061553203,-0.00090424286,0.00046052953,-0.0002578646,-0.0139624085,0.0010763532,-0.019987112,0.023362545,0.00032116982,0.0036671194,0.005365688,1.8230301e-05,487.9847,0.1000061,0.010000001,-487.9847,0.12029016,0.11299669,0.080278486,0.04926654,inf,inf,inf,inf,inf,160,1,1,1,1,3,3,2,1,6,1,1,1,0,3,0,0
1771685725724000,1771685725724000,1771685725724000,1771684928340000,47.3977419,8.5455939,0.029492587,0.042347565,-0.019927979,0.004007112,-0.0025302004,-487.9847,-0.006319639,-0.0093278745,-0.043021962,-0.061311074,-0.00090424286,0.00046052953,-0.0002578646,-0.021266712,-0.020191604,0.0052354294,0.02341217,0.00032039016,0.0037221252,0.005365688,1.826378e-05,487.9847,0.1000061,0.010000001,-487.9847,0.12069274,0.113246955,0.08056926,0.049349383,inf,inf,inf,inf,inf,160,1,1,1,1,3,3,2,1,6,1,1,1,0,3,0,0
1771685725732000,1771685725732000,1771685725732000,1771684928340000,47.3977419,8.5455939,0.029458933,0.042347673,-0.020202637,0.004007112,-0.0025302004,-487.9847,-0.006217163,-0.009114897,-0.04279546,-0.060929585,-0.00090424286,0.00046052953,-0.0002578646,0.011054017,0.018303117,0.022389924,0.023463404,0.00032049773,0.003778025,0.005365688,1.8308052e-05,487.9847,0.1000061,0.010000001,-487.9847,0.121100284,0.113438934,0.080868594,0.04942168,inf,inf,inf,inf,inf,160,1,1,1,1,3,3,2,1,6,1,1,1,0,3,0,0
1771685725740000,1771685725740000,1771685725740000,1771684928340000,47.3977419,8.5455939,0.02942432,0.042347778,-0.020446777,0.004007112,-0.0025302004,-487.9847,-0.0065527647,-0.009143887,-0.04256304,-0.060542017,-0.00090424286,0.00046052953,-0.0002578646,-0.043668658,-0.011710462,0.023227649,0.023397485,0.0003206052,0.003716744,0.005365688,1.8352355e-05,487.9847,0.1000061,0.010000001,-487.9847,0.12151059,0.11369074,0.08116844,0.04950428,inf,inf,inf,inf,inf,160,1,1,1,1,3,3,2,1,6,1,1,1,0,3,0,0
1771685725748000,1771685725748000,1771685725748000,1771684928340000,47.3977419,8.5455939,0.029388776,0.042345632,-0.020690918,0.004007112,-0.0025302004,-487.9847,-0.0065296562,-0.009126745,-0.04286404,-0.06068775,-0.00090424286,0.00046052953,-0.0002578646,0.001203266,-0.0057209716,-0.043353993,0.023430828,0.00032071295,0.003754675,0.005365688,1.839671e-05,487.9847,0.1000061,0.010000001,-487.9847,0.121923655,0.11394338,0.08146922,0.049586758,inf,inf,inf,inf,inf,160,1,1,1,1,3,3,2,1,6,1,1,1,0,3,0,0
1771685725756000,1771685725756000,1771685725756000,1771684928340000,47.3977419,8.5455939,0.029357249,0.0423442,-0.020965576,0.004007112,-0.0025302004,-487.9847,-0.006581643,-0.009333268,-0.04287973,-0.060549337,-0.00090424286,0.00046052953,-0.0002578646,-0.008605809,-0.03432356,-0.008522532,0.023397159,0.0003206505,0.0037254463,0.005365688,1.8160836e-05,487.9847,0.1000061,0.010000001,-487.9847,0.11969069,0.112624206,0.07983038,0.04914313,inf,inf,inf,inf,inf,160,1,1,1,1,3,3,2,1,6,1,1,1,0,3,0,0
1771685725764000,1771685725764000,1771685725764000,1771684928340000,47.3977419,8.5455939,0.029324766,0.04234031,-0.021209717,0.004007112,-0.0025302004,-487.9847,-0.00685355,-0.009219629,-0.042633396,-0.060148865,-0.00090424286,0.00046052953,-0.0002578646,-0.036049612,0.005921836,0.02434803,0.023328798,0.00032075806,0.0036611515,0.005365688,1.820501e-05,487.9847,0.1000061,0.010000001,-487.9847,0.120091446,0.11287322,0.08012969,0.04922616,inf,inf,inf,inf,inf,160,1,1,1,1,3,3,2,1,6,1,1,1,0,3,0,0
1771685725772000,1771685725772000,1771685725772000,1771684928340000,47.3977419,8.5455939,0.029289577,0.04233616,-0.021484375,0.004007112,-0.0025302004,-487.9847,-0.00707932,-0.009143482,-0.0425891,-0.05995044,-0.00090424286,0.00046052953,-0.0002578646,-0.030244175,0.0014622527,-0.00079255545,0.02322222,0.00032086569,0.0035584862,0.005365688,1.824922e-05,487.9847,0.1000061,0.010000001,-487.9847,0.12049495,0.11312308,0.08042898,0.049309064,inf,inf,inf,inf,inf,160,1,1,1,1,3,3,2,1,6,1,1,1,0,3,0,0
1771685725780000,1771685725780000,1771685725780000,1771684928340000,47.3977419,8.5455939,0.029253671,0.042330794,-0.021728516,0.004007112,-0.0025302004,-487.9847,-0.0071399505,-0.009067653,-0.042324826,-0.0595281,-0.00090424286,0.00046052953,-0.0002578646,-0.009559088,0.0016442353,0.026683787,0.023241436,0.00032097346,0.0035814545,0.005365688,1.8293478e-05,487.9847,0.1000061,0.010000001,-487.9847,0.12090119,0.113314845,0.08072859,0.049381472,inf,inf,inf,inf,inf,160,1,1,1,1,3,3,2,1,6,1,1,1,0,3,0,0
1771685725788000,1771685725788000,1771685725788000,1771684928340000,47.3977419,8.5455939,0.029217472,0.042325586,-0.021972656,0.004007112,-0.0025302004,-487.9847,-0.007177519,-0.008974165,-0.042516485,-0.059561983,-0.00090424286,0.00046052953,-0.0002578646,-0.0066905827,0.00393025,-0.030195339,0.023283172,0.00032019542,0.0036267969,0.005365688,1.8326928e-05,487.9847,0.1000061,0.010000001,-487.9847,0.121307835,0.11356624,0.08101865,0.049464136,inf,inf,inf,inf,inf,160,1,1,1,1,3,3,2,1,6,1,1,1,0,3,0,0
1771685725796000,1771685725796000,1771685725796000,1771684928340000,47.3977419,8.5455939,0.02918055,0.042318746,-0.022216797,0.004007112,-0.0025302004,-487.9847,-0.0072450954,-0.009141389,-0.04251655,-0.05940458,-0.00090424286,0.00046052953,-0.0002578646,-0.010403808,-0.028446231,-0.0061369496,0.02322171,0.00032030282,0.0035698763,0.005365688,1.8371244e-05,487.9847,0.1000061,0.010000001,-487.9847,0.12171954,0.11381848,0.081319556,0.04954667,inf,inf,inf,inf,inf,160,1,1,1,1,3,3,2,1,6,1,1,1,0,3,0,0
1771685725804000,1771685725804000,1771685725804000,1771684928340000,47.3977419,8.5455939,0.02914489,0.042307034,-0.022460938,0.004007112,-0.0025302004,-487.9847,-0.0069218883,-0.009823222,-0.042478517,-0.059209388,-0.00090424286,0.00046052953,-0.0002578646,0.038482785,-0.09256317,-0.0012684612,0.023141991,0.00032041027,0.0034945603,0.005365688,1.8415598e-05,487.9847,0.1000061,0.010000001,-487.9847,0.12213401,0.11407155,0.08161987,0.04962908,inf,inf,inf,inf,inf,160,1,1,1,1,3,3,2,1,6,1,1,1,0,3,0,0
1771685725812000,1771685725812000,1771685725812000,1771684928340000,47.3977419,8.5455939,0.02911628,0.042307016,-0.022705078,0.004007112,-0.0025302004,-487.9847,-0.0068855104,-0.00970308,-0.04222973,-0.058804035,-0.00090424286,0.00046052953,-0.0002578646,0.0020176265,0.006370324,0.024242325,0.023124505,0.00032049872,0.0034813094,0.005365688,1.8179815e-05,487.9847,0.1000061,0.010000001,-487.9847,0.119886555,0.11274726,0.07997127,0.049183566,inf,inf,inf,inf,inf,160,1,1,1,1,3,3,2,1,6,1,1,1,0,3,0,0
1771685725820000,1771685725820000,1771685725820000,1771684928340000,47.3977419,8.5455939,0.029087337,0.042307556,-0.022949219,0.004007112,-0.0025302004,-487.9847,-0.006996318,-0.009503538,-0.041876502,-0.05829465,-0.00090424286,0.00046052953,-0.0002578646,-0.016329167,0.016533319,0.03742566,0.023191512,0.00032060622,0.0035522818,0.005365688,1.8224007e-05,487.9847,0.1000061,0.010000001,-487.9847,0.120288625,0.11299669,0.08027081,0.049266536,inf,inf,inf,inf,inf,160,1,1,1,1,3,3,2,1,6,1,1,1,0,3,0,0
1771685725828000,1771685725828000,1771685725828000,1771684928340000,47.3977419,8.5455939,0.029055728,0.04230563,-0.023162842,0.004007112,-0.0025302004,-487.9847,-0.0074665924,-0.0098191565,-0.041377977,-0.057640385,-0.00090424286,0.00046052953,-0.0002578646,-0.06120704,-0.0476292,0.05571218,0.02319127,0.0003207138,0.0035558487,0.005365688,1.826824e-05,487.9847,0.1000061,0.010000001,-487.9847,0.12069344,0.113246955,0.08057071,0.049349375,inf,inf,inf,inf,inf,160,1,1,1,1,3,3,2,1,6,1,1,1,0,3,0,0
1771685725836000,1771685725836000,1771685725836000,1771684928340000,47.3977419,8.5455939,0.029020816,0.042300783,-0.023406982,0.004007112,-0.0025302004,-487.9847,-0.007774045,-0.009681173,-0.04131194,-0.057414006,-0.00090424286,0.00046052953,-0.0002578646,-0.04079656,0.009291998,0.0016009434,0.023152977,0.0003208214,0.0035211998,0.005365688,1.8312508e-05,487.9847,0.1000061,0.010000001,-487.9847,0.12110099,0.113438934,0.08087093,0.04942167,inf,inf,inf,inf,inf,160,1,1,1,1,3,3,2,1,6,1,1,1,0,3,0,0
1771685725844000,1771685725844000,1771685725844000,1771684928340000,47.3977419,8.5455939,0.028984101,0.042296182,-0.023620605,0.004007112,-0.0025302004,-487.9847,-0.0077873548,-0.0095292255,-0.041171104,-0.057113405,-0.00090424286,0.00046052953,-0.0002578646,-0.003972194,0.011253952,0.0110734245,0.023167217,0.00032092902,0.0035389191,0.005365688,1.8356812e-05,487.9847,0.1000061,0.010000001,-487.9847,0.12151132,0.11369074,0.081172034,0.049504273,inf,inf,inf,inf,inf,160,1,1,1,1,3,3,2,1,6,1,1,1,0,3,0,0
1771685725852000,1771685725852000,1771685725852000,1771684928340000,47.3977419,8.5455939,0.028947175,0.042289387,-0.023864746,0.004007112,-0.0025302004,-487.9847,-0.007933239,-0.00979334,-0.041225836,-0.057008885,-0.00090424286,0.00046052953,-0.0002578646,-0.020491475,-0.04054092,-0.013252719,0.023173051,0.0003210367,0.0035480815,0.005365688,1.8401155e-05,487.9847,0.1000061,0.010000001,-487.9847,0.1219244,0.11394338,0.081473075,0.04958675,inf,inf,inf,inf,inf,160,1,1,1,1,3,3,2,1,6,1,1,1,0,3,0,0
1771685725860000,1771685725860000,1771685725860000,1771684928340000,47.3977419,8.5455939,0.028904099,0.04229566,-0.02407837,0.004007112,-0.0025302004,-487.9847,-0.00793013,-0.010000917,-0.041674525,-0.057292003,-0.00090424286,0.00046052953,-0.0002578646,-0.0018376212,-0.034990236,-0.06359815,0.023131097,0.0003202395,0.0035092938,0.005365688,1.8156561e-05,487.9847,0.1000061,0.010000001,-487.9847,0.11968954,0.112624206,0.07982728,0.04914312,inf,inf,inf,inf,inf,160,1,1,1,1,3,3,2,1,6,1,1,1,0,3,0,0
1771685725868000,1771685725868000,1771685725868000,1771684928340000,47.3977419,8.5455939,0.02886246,0.042297985,-0.024291992,0.004007112,-0.0025302004,-487.9847,-0.0076294914,-0.0101929745,-0.041775625,-0.057228293,-0.00090424286,0.00046052953,-0.0002578646,0.0353917,-0.03280302,-0.020000616,0.023119692,0.0003203469,0.003503434,0.005365688,1.8200733e-05,487.9847,0.1000061,0.010000001,-487.9847,0.12009027,0.11287322,0.08012681,0.049226154,inf,inf,inf,inf,inf,160,1,1,1,1,3,3,2,1,6,1,1,1,0,3,0,0
1771685725876000,1771685725876000,1771685725876000,1771684928340000,47.3977419,8.5455939,0.028822865,0.042297803,-0.024536133,0.004007112,-0.0025302004,-487.9847,-0.0074140653,-0.010290729,-0.041791804,-0.057080433,-0.00090424286,0.00046052953,-0.0002578646,0.024789473,-0.020773984,-0.009241047,0.023158465,0.00032045436,0.0035475935,0.005365688,1.8244944e-05,487.9847,0.1000061,0.010000001,-487.9847,0.120493755,0.11312308,0.08042607,0.049309056,inf,inf,inf,inf,inf,160,1,1,1,1,3,3,2,1,6,1,1,1,0,3,0,0
1771685725884000,1771685725884000,1771685725884000,1771684928340000,47.3977419,8.5455939,0.02878548,0.042294513,-0.024749756,0.004007112,-0.0025302004,-487.9847,-0.0070565203,-0.010403617,-0.041617014,-0.05673941,-0.00090424286,0.00046052953,-0.0002578646,0.04259744,-0.022429178,0.014670192,0.023180794,0.00032056175,0.0035751606,0.005365688,1.8289185e-05,487.9847,0.1000061,0.010000001,-487.9847,0.12089998,0.113314845,0.08072538,0.049381465,inf,inf,inf,inf,inf,160,1,1,1,1,3,3,2,1,6,1,1,1,0,3,0,0
1771685725892000,1771685725892000,1771685725892000,1771684928340000,47.3977419,8.5455939,0.028750943,0.042290103,-0.024963379,0.004007112,-0.0025302004,-487.9847,-0.0067059323,-0.0102216685,-0.041377205,-0.05633436,-0.00090424286,0.00046052953,-0.0002578646,0.04176996,0.014650495,0.022937076,0.023144582,0.00032066923,0.0035440545,0.005365688,1.8333467e-05,487.9847,0.1000061,0.010000001,-487.9847,0.12130896,0.11356624,0.08102476,0.04946413,inf,inf,inf,inf,inf,160,1,1,1,1,3,3,2,1,6,1,1,1,0,3,0,0
1771685725900000,1771685725900000,1771685725900000,1771684928340000,47.3977419,8.5455939,0.028718485,0.042285066,-0.025177002,0.004007112,-0.0025302004,-487.9847,-0.006512167,-0.010045462,-0.041425396,-0.056218296,-0.00090424286,0.00046052953,-0.0002578646,0.022212192,0.01415715,-0.012926291,0.023174264,0.00032077692,0.0035787108,0.005365688,1.8377797e-05,487.9847,0.1000061,0.010000001,-487.9847,0.121720694,0.11381848,0.081325956,0.049546663,inf,inf,inf,inf,inf,160,1,1,1,1,3,3,2,1,6,1,1,1,0,3,0,0
1771685725908000,1771685725908000,1771685725908000,1771684928340000,47.3977419,8.5455939,0.028687516,0.04227936,-0.025390625,0.004007112,-0.0025302004,-487.9847,-0.0063875713,-0.010044617,-0.041502662,-0.056132253,-0.00090424286,0.00046052953,-0.0002578646,0.013608648,-0.0075486517,-0.016428528,0.023196513,0.00032088454,0.0036058011,0.005365688,1.8422159e-05,487.9847,0.1000061,0.010000001,-487.9847,0.12213519,0.11407155,0.08162668,0.049629074,inf,inf,inf,inf,inf,160,1,1,1,1,3,3,2,1,6,1,1,1,0,3,0,0
1771685725916000,1771685725916000,1771685725916000,1771684928340000,47.3977419,8.5455939,0.028653517,0.04228001,-0.025604248,0.004007112,-0.0025302004,-487.9847,-0.0064172163,-0.009920607,-0.04162769,-0.05608414,-0.00090424286,0.00046052953,-0.0002578646,-0.0059376503,0.007026713,-0.023613682,0.023209115,0.00032097378,0.0036231163,0.005365688,1.8186169e-05,487.9847,0.1000061,0.010000001,-487.9847,0.11988758,0.11274726,0.079977155,0.049183562,inf,inf,inf,inf,inf,160,1,1,1,1,3,3,2,1,6,1,1,1,0,3,0,0
1771685725924000,1771685725924000,1771685725924000,1771684928340000,47.3977419,8.5455939,0.028621826,0.042281196,-0.025787354,0.004007112,-0.0025302004,-487.9847,-0.006146301,-0.009675706,-0.041817386,-0.05610216,-0.00090424286,0.00046052953,-0.0002578646,0.031522073,0.022298597,-0.031532716,0.023190103,0.00032019554,0.0036086193,0.005365688,1.8219664e-05,487.9847,0.1000061,0.010000001,-487.9847,0.12028745,0.11299668,0.08026723,0.049266532,inf,inf,inf,inf,inf,160,1,1,1,1,3,3,2,1,6,1,1,1,0,3,0,0
1771685725932000,1771685725932000,1771685725932000,1771684928340000,47.3977419,8.5455939,0.028590908,0.04228033,-0.026000977,0.004007112,-0.0025302004,-487.9847,-0.0061218585,-0.009944961,-0.04243706,-0.05655165,-0.00090424286,0.00046052953,-0.0002578646,0.000763624,-0.04174537,-0.08512055,0.02317625,0.00032030293,0.0035997122,0.005365688,1.8263889e-05,487.9847,0.1000061,0.010000001,-487.9847,0.12069224,0.113246955,0.080566205,0.04934937,inf,inf,inf,inf,inf,160,1,1,1,1,3,3,2,1,6,1,1,1,0,3,0,0
1771685725940000,1771685725940000,1771685725940000,1771684928340000,47.3977419,8.5455939,0.028561816,0.042275652,-0.0262146,0.004007112,-0.0025302004,-487.9847,-0.0058222027,-0.010132345,-0.042736825,-0.0566777,-0.00090424286,0.00046052953,-0.0002578646,0.035214454,-0.03128944,-0.04513189,0.023184782,0.00032041039,0.0036130804,0.005365688,1.8308154e-05,487.9847,0.1000061,0.010000001,-487.9847,0.12109977,0.113438934,0.08086665,0.049421668,inf,inf,inf,inf,inf,160,1,1,1,1,3,3,2,1,6,1,1,1,0,3,0,0
1771685725948000,1771685725948000,1771685725948000,1771684928340000,47.3977419,8.5455939,0.028532745,0.042268958,-0.026428223,0.004007112,-0.0025302004,-487.9847,-0.0060804198,-0.010037307,-0.04269748,-0.05646627,-0.00090424286,0.00046052953,-0.0002578646,-0.034471244,0.004233556,-0.0025881452,0.023119844,0.00032051775,0.0035528648,0.005365688,1.835245e-05,487.9847,0.1000061,0.010000001,-487.9847,0.121510066,0.11369074,0.081166856,0.04950427,inf,inf,inf,inf,inf,160,1,1,1,1,3,3,2,1,6,1,1,1,0,3,0,0
1771685725956000,1771685725956000,1771685725956000,1771684928340000,47.3977419,8.5455939,0.028500505,0.042261884,-0.026641846,0.004007112,-0.0025302004,-487.9847,-0.0064987377,-0.010183048,-0.042495362,-0.056093678,-0.00090424286,0.00046052953,-0.0002578646,-0.05436059,-0.025923355,0.017910728,0.023093522,0.00032047468,0.0035311426,0.005365688,1.8394669e-05,487.9847,0.1000061,0.010000001,-487.9847,0.1219227,0.113943376,0.08146567,0.049586743,inf,inf,inf,inf,inf,160,1,1,1,1,3,3,2,1,6,1,1,1,0,3,0,0
1771685725964000,1771685725964000,1771685725964000,1771684928340000,47.3977419,8.5455939,0.028463457,0.04225314,-0.026824951,0.004007112,-0.0025302004,-487.9847,-0.0066645634,-0.010403667,-0.04219836,-0.055618055,-0.00090424286,0.00046052953,-0.0002578646,-0.023083352,-0.03580636,0.028645152,0.023113154,0.00032056362,0.003555288,0.005365688,1.8160936e-05,487.9847,0.1000061,0.010000001,-487.9847,0.11969022,0.1126242,0.07982848,0.04914312,inf,inf,inf,inf,inf,160,1,1,1,1,3,3,2,1,6,1,1,1,0,3,0,0
1771685725972000,1771685725972000,1771685725972000,1771684928340000,47.3977419,8.5455939,0.028424507,0.04224067,-0.027038574,0.004007112,-0.0025302004,-487.9847,-0.006972426,-0.010730562,-0.041542966,-0.05478613,-0.00090424286,0.00046052953,-0.0002578646,-0.040784992,-0.04886593,0.073624305,0.023083866,0.000320671,0.0035303435,0.005365688,1.82051e-05,487.9847,0.1000061,0.010000001,-487.9847,0.12009096,0.11287322,0.08012684,0.049226154,inf,inf,inf,inf,inf,160,1,1,1,1,3,3,2,1,6,1,1,1,0,3,0,0
1771685725980000,1771685725980000,1771685725980000,1771684928340000,47.3977419,8.5455939,0.028383898,0.042224117,-0.02722168,0.004007112,-0.0025302004,-487.9847,-0.0071668206,-0.010920954,-0.041564886,-0.05463369,-0.00090424286,0.00046052953,-0.0002578646,-0.026556518,-0.031581327,-0.010864343,0.02310489,0.00032077852,0.003555586,0.005365688,1.824931e-05,487.9847,0.1000061,0.010000001,-487.9847,0.120494455,0.113123074,0.08042496,0.049309056,inf,inf,inf,inf,inf,160,1,1,1,1,3,3,2,1,6,1,1,1,0,3,0,0
1771685725988000,1771685725988000,1771685725988000,1771684928340000,47.3977419,8.5455939,0.028341165,0.042206682,-0.027404785,0.004007112,-0.0025302004,-487.9847,-0.00750839,-0.010606365,-0.04199557,-0.0548882,-0.00090424286,0.00046052953,-0.0002578646,-0.044906653,0.03176014,-0.061918046,0.023112118,0.00032088606,0.0035669259,0.005365688,1.8293555e-05,487.9847,0.1000061,0.010000001,-487.9847,0.120900676,0.113314845,0.08072454,0.049381465,inf,inf,inf,inf,inf,160,1,1,1,1,3,3,2,1,6,1,1,1,0,3,0,0
1771685725996000,1771685725996000,1771685725996000,1771684928340000,47.3977419,8.5455939,0.0282956,0.04219012,-0.027618408,0.004007112,-0.0025302004,-487.9847,-0.0071308785,-0.010448549,-0.042304132,-0.05502292,-0.00090424286,0.00046052953,-0.0002578646,0.04556999,0.012332451,-0.046483237,0.023166167,0.00032010864,0.0036249845,0.005365688,1.8327002e-05,487.9847,0.1000061,0.010000001,-487.9847,0.12130729,0.11356624,0.081014894,0.04946413,inf,inf,inf,inf,inf,160,1,1,1,1,3,3,2,1,6,1,1,1,0,3,0,0
1771685726004000,1771685726004000,1771685726004000,1771684928340000,47.3977419,8.5455939,0.028252088,0.04217265,-0.027801514,0.004007112,-0.0025302004,-487.9847,-0.0071371607,-0.010412724,-0.042545725,-0.05509297,-0.00090424286,0.00046052953,-0.0002578646,-0.0023683822,-0.0027084632,-0.0379472,0.023170952,0.0003202159,0.0036341413,0.005365688,1.8371313e-05,487.9847,0.1000061,0.010000001,-487.9847,0.12171898,0.113818474,0.08131533,0.049546663,inf,inf,inf,inf,inf,160,1,1,1,1,3,3,2,1,6,1,1,1,0,3,0,0
1771685726012000,1771685726012000,1771685726012000,1771684928340000,47.3977419,8.5455939,0.028208828,0.042152967,-0.028015137,0.004007112,-0.0025302004,-487.9847,-0.0070068603,-0.010588436,-0.042816896,-0.055194788,-0.00090424286,0.00046052953,-0.0002578646,0.014739329,-0.028950823,-0.041483898,0.023215242,0.0003203233,0.0036827005,0.005365688,1.8415663e-05,487.9847,0.1000061,0.010000001,-487.9847,0.12213343,0.11407155,0.08161716,0.049629074,inf,inf,inf,inf,inf,160,1,1,1,1,3,3,2,1,6,1,1,1,0,3,0,0
1771685726020000,1771685726020000,1771685726020000,1771684928340000,47.3977419,8.5455939,0.028177084,0.042120505,-0.028198242,0.004007112,-0.0025302004,-487.9847,-0.0066695507,-0.010509918,-0.04269672,-0.05489555,-0.00090424286,0.00046052953,-0.0002578646,0.039624974,0.0028928297,0.0062473114,0.023209551,0.000320412,0.0036811898,0.005365688,1.81799e-05,487.9847,0.1000061,0.010000001,-487.9847,0.11988603,0.11274725,0.07996926,0.049183562,inf,inf,inf,inf,inf,160,1,1,1,1,3,3,2,1,6,1,1,1,0,3,0,0
1771685726028000,1771685726028000,1771685726028000,1771684928340000,47.3977419,8.5455939,0.02814647,0.042086508,-0.028381348,0.004007112,-0.0025302004,-487.9847,-0.0066907704,-0.010657979,-0.04244252,-0.05446479,-0.00090424286,0.00046052953,-0.0002578646,-0.005133947,-0.025232876,0.023191793,0.023185816,0.00032051938,0.0036614756,0.005365688,1.8224086e-05,487.9847,0.1000061,0.010000001,-487.9847,0.12028809,0.11299668,0.08026884,0.049266532,inf,inf,inf,inf,inf,160,1,1,1,1,3,3,2,1,6,1,1,1,0,3,0,0
1771685726036000,1771685726036000,1771685726036000,1771684928340000,47.3977419,8.5455939,0.028115248,0.042051457,-0.02859497,0.004007112,-0.0025302004,-487.9847,-0.006825847,-0.010521917,-0.042669356,-0.05451755,-0.00090424286,0.00046052953,-0.0002578646,-0.019299116,0.010473462,-0.03675278,0.023185639,0.00032062683,0.003665158,0.005365688,1.826831e-05,487.9847,0.1000061,0.010000001,-487.9847,0.120692894,0.11324695,0.08056827,0.049349375,inf,inf,inf,inf,inf,160,1,1,1,1,3,3,2,1,6,1,1,1,0,3,0,0
1771685726044000,1771685726044000,1771685726044000,1771684928340000,47.3977419,8.5455939,0.028081765,0.042016253,-0.028778076,0.004007112,-0.0025302004,-487.9847,-0.007149141,-0.010435884,-0.042843,-0.054514565,-0.00090424286,0.00046052953,-0.0002578646,-0.042763256,0.004403662,-0.03010174,0.023157846,0.00032073437,0.0036410852,0.005365688,1.8312574e-05,487.9847,0.1000061,0.010000001,-487.9847,0.12110044,0.11343893,0.080867805,0.04942167,inf,inf,inf,inf,inf,160,1,1,1,1,3,3,2,1,6,1,1,1,0,3,0,0
1771685726052000,1771685726052000,1771685726052000,1771684928340000,47.3977419,8.5455939,0.02804619,0.04197964,-0.028961182,0.004007112,-0.0025302004,-487.9847,-0.007335777,-0.010635236,-0.042878557,-0.054376133,-0.00090424286,0.00046052953,-0.0002578646,-0.025626663,-0.03108898,-0.012660398,0.023188943,0.00032084188,0.0036757546,0.005365688,1.8356874e-05,487.9847,0.1000061,0.010000001,-487.9847,0.121510744,0.113690734,0.0811683,0.049504273,inf,inf,inf,inf,inf,160,1,1,1,1,3,3,2,1,6,1,1,1,0,3,0,0
1771685726060000,1771685726060000,1771685726060000,1771684928340000,47.3977419,8.5455939,0.028009878,0.041941755,-0.029174805,0.004007112,-0.0025302004,-487.9847,-0.007417246,-0.010618608,-0.042662658,-0.053988803,-0.00090424286,0.00046052953,-0.0002578646,-0.012502428,-0.0040807026,0.018947756,0.023198783,0.00032006518,0.0036890204,0.005365688,1.8390303e-05,487.9847,0.1000061,0.010000001,-487.9847,0.12192137,0.113943376,0.08145958,0.04958675,inf,inf,inf,inf,inf,160,1,1,1,1,3,3,2,1,6,1,1,1,0,3,0,0
1771685726068000,1771685726068000,1771685726068000,1771684928340000,47.3977419,8.5455939,0.027970484,0.04190637,-0.029327393,0.004007112,-0.0025302004,-487.9847,-0.00737478,-0.010611845,-0.04267146,-0.05381388,-0.00090424286,0.00046052953,-0.0002578646,0.002753565,-0.0060354336,-0.0104052005,0.023190599,0.00032015351,0.0036853733,0.005365688,1.8156727e-05,487.9847,0.1000061,0.010000001,-487.9847,0.11968903,0.1126242,0.07982364,0.049143124,inf,inf,inf,inf,inf,160,1,1,1,1,3,3,2,1,6,1,1,1,0,3,0,0
1771685726076000,1771685726076000,1771685726076000,1771684928340000,47.3977419,8.5455939,0.027932806,0.041870248,-0.029510498,0.004007112,-0.0025302004,-487.9847,-0.007007467,-0.010596428,-0.042850178,-0.053811852,-0.00090424286,0.00046052953,-0.0002578646,0.043415125,-0.004760217,-0.03143679,0.02324005,0.00032026082,0.0037391516,0.005365688,1.8200895e-05,487.9847,0.1000061,0.010000001,-487.9847,0.120089754,0.11287321,0.08012356,0.049226154,inf,inf,inf,inf,inf,160,1,1,1,1,3,3,2,1,6,1,1,1,0,3,0,0
1771685726084000,1771685726084000,1771685726084000,1771684928340000,47.3977419,8.5455939,0.027898574,0.041832816,-0.029693604,0.004007112,-0.0025302004,-487.9847,-0.006541186,-0.01064476,-0.042877275,-0.05366102,-0.00090424286,0.00046052953,-0.0002578646,0.05584754,-0.012543932,-0.012282281,0.023309922,0.00032036816,0.003813229,0.005365688,1.82451e-05,487.9847,0.1000061,0.010000001,-487.9847,0.120493226,0.113123074,0.08042475,0.049309056,inf,inf,inf,inf,inf,160,1,1,1,1,3,3,2,1,6,1,1,1,0,3,0,0
1771685726092000,1771685726092000,1771685726092000,1771684928340000,47.3977419,8.5455939,0.02786739,0.041794516,-0.029876709,0.004007112,-0.0025302004,-487.9847,-0.006206862,-0.010494791,-0.042637106,-0.05324154,-0.00090424286,0.00046052953,-0.0002578646,0.039410446,0.012422744,0.021188052,0.023320043,0.00032047555,0.0038274187,0.005365688,1.8289342e-05,487.9847,0.1000061,0.010000001,-487.9847,0.12089944,0.11331484,0.080725536,0.049381465,inf,inf,inf,inf,inf,160,1,1,1,1,3,3,2,1,6,1,1,1,0,3,0,0
1771685726100000,1771685726100000,1771685726100000,1771684928340000,47.3977419,8.5455939,0.027838457,0.04175654,-0.030059814,0.004007112,-0.0025302004,-487.9847,-0.0060279947,-0.010400145,-0.04253211,-0.052959923,-0.00090424286,0.00046052953,-0.0002578646,0.020032303,0.0056856805,0.004486646,0.023274997,0.00032058297,0.0037863045,0.005365688,1.8333623e-05,487.9847,0.1000061,0.010000001,-487.9847,0.121308416,0.113566235,0.08102548,0.04946413,inf,inf,inf,inf,inf,160,1,1,1,1,3,3,2,1,6,1,1,1,0,3,0,0
1771685726108000,1771685726108000,1771685726108000,1771684928340000,47.3977419,8.5455939,0.027809765,0.041718405,-0.03024292,0.004007112,-0.0025302004,-487.9847,-0.0060793124,-0.0102302525,-0.04265346,-0.052907318,-0.00090424286,0.00046052953,-0.0002578646,-0.008684652,0.015263034,-0.023617407,0.023240704,0.00032069042,0.0037558,0.005365688,1.8377941e-05,487.9847,0.1000061,0.010000001,-487.9847,0.12172014,0.113818474,0.08132521,0.049546666,inf,inf,inf,inf,inf,160,1,1,1,1,3,3,2,1,6,1,1,1,0,3,0,0
1771685726116000,1771685726116000,1771685726116000,1771684928340000,47.3977419,8.5455939,0.02778047,0.04167958,-0.030426025,0.004007112,-0.0025302004,-487.9847,-0.0061464338,-0.010361248,-0.042641204,-0.052723773,-0.00090424286,0.00046052953,-0.0002578646,-0.01060388,-0.022176256,-0.0067320648,0.023231035,0.000320798,0.0037497985,0.005365688,1.8422299e-05,487.9847,0.1000061,0.010000001,-487.9847,0.12213464,0.11407154,0.08162511,0.049629074,inf,inf,inf,inf,inf,160,1,1,1,1,3,3,2,1,6,1,1,1,0,3,0,0
1771685726124000,1771685726124000,1771685726124000,1771684928340000,47.3977419,8.5455939,0.027769428,0.041644543,-0.030578613,0.004007112,-0.0025302004,-487.9847,-0.0063220384,-0.010200238,-0.04250752,-0.05239973,-0.00090424286,0.00046052953,-0.0002578646,-0.025572225,0.013426502,0.0069551165,0.023294201,0.000320887,0.0038164924,0.005365688,1.8186342e-05,487.9847,0.1000061,0.010000001,-487.9847,0.119887106,0.11274725,0.07997468,0.049183562,inf,inf,inf,inf,inf,160,1,1,1,1,3,3,2,1,6,1,1,1,0,3,0,0
1771685726132000,1771685726132000,1771685726132000,1771684928340000,47.3977419,8.5455939,0.027761709,0.041611988,-0.030761719,0.004007112,-0.0025302004,-487.9847,-0.006787669,-0.009811235,-0.041844178,-0.051549625,-0.00090424286,0.00046052953,-0.0002578646,-0.06309829,0.041816227,0.07338635,0.023340328,0.00032010945,0.003865953,0.005365688,1.8219835e-05,487.9847,0.1000061,0.010000001,-487.9847,0.12028696,0.112996675,0.08026498,0.049266532,inf,inf,inf,inf,inf,160,1,1,1,1,3,3,2,1,6,1,1,1,0,3,0,0
1771685726140000,1771685726140000,1771685726140000,1771684928340000,47.3977419,8.5455939,0.027750317,0.041581977,-0.030914307,0.004007112,-0.0025302004,-487.9847,-0.0070430674,-0.009380379,-0.04192535,-0.051447492,-0.00090424286,0.00046052953,-0.0002578646,-0.036699563,0.047238883,-0.01946138,0.023316469,0.00032021673,0.003847239,0.005365688,1.8264058e-05,487.9847,0.1000061,0.010000001,-487.9847,0.12069173,0.11324695,0.08056565,0.04934937,inf,inf,inf,inf,inf,160,1,1,1,1,3,3,2,1,6,1,1,1,0,3,0,0
1771685726148000,1771685726148000,1771685726148000,1771684928340000,47.3977419,8.5455939,0.027737904,0.041553337,-0.031066895,0.004007112,-0.0025302004,-487.9847,-0.0069453614,-0.00916231,-0.04184406,-0.051181156,-0.00090424286,0.00046052953,-0.0002578646,0.0075516505,0.020827128,0.00087777147,0.023269292,0.00032032406,0.0038050762,0.005365688,1.830832e-05,487.9847,0.1000061,0.010000001,-487.9847,0.12109926,0.11343893,0.08086661,0.049421668,inf,inf,inf,inf,inf,160,1,1,1,1,3,3,2,1,6,1,1,1,0,3,0,0
1771685726156000,1771685726156000,1771685726156000,1771684928340000,47.3977419,8.5455939,0.027724335,0.041526247,-0.031219482,0.004007112,-0.0025302004,-487.9847,-0.0069021704,-0.008895842,-0.041395795,-0.050551157,-0.00090424286,0.00046052953,-0.0002578646,0.0011145074,0.027001787,0.04695961,0.023222394,0.0003202813,0.0037630736,0.005365688,1.8350505e-05,487.9847,0.1000061,0.010000001,-487.9847,0.12150914,0.11369073,0.08116577,0.04950427,inf,inf,inf,inf,inf,160,1,1,1,1,3,3,2,1,6,1,1,1,0,3,0,0
1771685726164000,1771685726164000,1771685726164000,1771684928340000,47.3977419,8.5455939,0.027710153,0.041497607,-0.03137207,0.004007112,-0.0025302004,-487.9847,-0.00695104,-0.009183313,-0.041382954,-0.05035975,-0.00090424286,0.00046052953,-0.0002578646,-0.010289522,-0.042058844,-0.00726385,0.023195315,0.0003203886,0.0037412248,0.005365688,1.8394832e-05,487.9847,0.1000061,0.010000001,-487.9847,0.12192219,0.11394337,0.08146708,0.049586743,inf,inf,inf,inf,inf,160,1,1,1,1,3,3,2,1,6,1,1,1,0,3,0,0
1771685726172000,1771685726172000,1771685726172000,1771684928340000,47.3977419,8.5455939,0.027712248,0.041479424,-0.03152466,0.004007112,-0.0025302004,-487.9847,-0.0070124306,-0.008944853,-0.0416716,-0.05045407,-0.00090424286,0.00046052953,-0.0002578646,-0.013059059,0.022465354,-0.046367753,0.023193907,0.00032047732,0.0037449277,0.005365688,1.8161063e-05,487.9847,0.1000061,0.010000001,-487.9847,0.11968972,0.11262419,0.07983031,0.04914312,inf,inf,inf,inf,inf,160,1,1,1,1,3,3,2,1,6,1,1,1,0,3,0,0
1771685726180000,1771685726180000,1771685726180000,1771684928340000,47.3977419,8.5455939,0.02771405,0.0414613,-0.03164673,0.004007112,-0.0025302004,-487.9847,-0.006817191,-0.009024623,-0.041861095,-0.050453033,-0.00090424286,0.00046052953,-0.0002578646,0.019150501,-0.0171055,-0.033733897,0.0231589,0.00032058466,0.0037148069,0.005365688,1.820523e-05,487.9847,0.1000061,0.010000001,-487.9847,0.12009047,0.11287321,0.08012902,0.049226154,inf,inf,inf,inf,inf,160,1,1,1,1,3,3,2,1,6,1,1,1,0,3,0,0
1771685726188000,1771685726188000,1771685726188000,1771684928340000,47.3977419,8.5455939,0.027716335,0.041440167,-0.031799316,0.004007112,-0.0025302004,-487.9847,-0.0066924826,-0.009219934,-0.041970555,-0.05037567,-0.00090424286,0.00046052953,-0.0002578646,0.0104601635,-0.031349853,-0.023496801,0.023185363,0.00032069205,0.0037460434,0.005365688,1.8249433e-05,487.9847,0.1000061,0.010000001,-487.9847,0.120493956,0.11312307,0.0804292,0.049309056,inf,inf,inf,inf,inf,160,1,1,1,1,3,3,2,1,6,1,1,1,0,3,0,0
1771685726196000,1771685726196000,1771685726196000,1771684928340000,47.3977419,8.5455939,0.027717045,0.041416433,-0.031951904,0.004007112,-0.0025302004,-487.9847,-0.0069146124,-0.009492416,-0.041978773,-0.050194614,-0.00090424286,0.00046052953,-0.0002578646,-0.032739844,-0.040825758,-0.010808463,0.023151295,0.00031991603,0.0037166378,0.005365688,1.8282903e-05,487.9847,0.1000061,0.010000001,-487.9847,0.12089788,0.11331483,0.080720104,0.049381465,inf,inf,inf,inf,inf,160,1,1,1,1,3,3,2,1,6,1,1,1,0,3,0,0
1771685726204000,1771685726204000,1771685726204000,1771684928340000,47.3977419,8.5455939,0.027715825,0.04139081,-0.032104492,0.004007112,-0.0025302004,-487.9847,-0.0069384137,-0.009345464,-0.042177312,-0.050207544,-0.00090424286,0.00046052953,-0.0002578646,-0.007827613,0.011794125,-0.034372784,0.023132361,0.00032002316,0.0037024128,0.005365688,1.832717e-05,487.9847,0.1000061,0.010000001,-487.9847,0.12130682,0.113566235,0.081020236,0.04946413,inf,inf,inf,inf,inf,160,1,1,1,1,3,3,2,1,6,1,1,1,0,3,0,0
1771685726212000,1771685726212000,1771685726212000,1771684928340000,47.3977419,8.5455939,0.027713824,0.04136515,-0.03225708,0.004007112,-0.0025302004,-487.9847,-0.006886987,-0.009268943,-0.04214769,-0.04999591,-0.00090424286,0.00046052953,-0.0002578646,0.0016911516,0.0031800154,-0.0056326385,0.023125067,0.00032013032,0.0036997288,0.005365688,1.8371476e-05,487.9847,0.1000061,0.010000001,-487.9847,0.121718526,0.11381847,0.08132005,0.049546663,inf,inf,inf,inf,inf,160,1,1,1,1,3,3,2,1,6,1,1,1,0,3,0,0
1771685726220000,1771685726220000,1771685726220000,1771684928340000,47.3977419,8.5455939,0.027711928,0.041338656,-0.032409668,0.004007112,-0.0025302004,-487.9847,-0.0066891494,-0.009238451,-0.042072028,-0.049741767,-0.00090424286,0.00046052953,-0.0002578646,0.020108055,-0.0023913297,0.00033574176,0.02312329,0.00032023754,0.0037024687,0.005365688,1.841582e-05,487.9847,0.1000061,0.010000001,-487.9847,0.12213299,0.11407154,0.081620805,0.049629074,inf,inf,inf,inf,inf,160,1,1,1,1,3,3,2,1,6,1,1,1,0,3,0,0
1771685726228000,1771685726228000,1771685726228000,1771684928340000,47.3977419,8.5455939,0.027718065,0.041329782,-0.03253174,0.004007112,-0.0025302004,-487.9847,-0.006522262,-0.009460956,-0.04184579,-0.049323637,-0.00090424286,0.00046052953,-0.0002578646,0.015570796,-0.035617262,0.017808283,0.023125788,0.00032032613,0.0037093381,0.005365688,1.8180006e-05,487.9847,0.1000061,0.010000001,-487.9847,0.119885586,0.11274725,0.079972975,0.04918356,inf,inf,inf,inf,inf,160,1,1,1,1,3,3,2,1,6,1,1,1,0,3,0,0
1771685726236000,1771685726236000,1771685726236000,1771684928340000,47.3977419,8.5455939,0.027724264,0.041317064,-0.032684326,0.004007112,-0.0025302004,-487.9847,-0.006412859,-0.009574918,-0.041827608,-0.04911754,-0.00090424286,0.00046052953,-0.0002578646,0.008514472,-0.021828877,-0.007951631,0.023087224,0.0003204334,0.0036748922,0.005365688,1.822419e-05,487.9847,0.1000061,0.010000001,-487.9847,0.12028766,0.112996675,0.08027274,0.049266532,inf,inf,inf,inf,inf,160,1,1,1,1,3,3,2,1,6,1,1,1,0,3,0,0
1771685726244000,1771685726244000,1771685726244000,1771684928340000,47.3977419,8.5455939,0.027730312,0.041304186,-0.032806396,0.004007112,-0.0025302004,-487.9847,-0.0063381013,-0.0092470795,-0.042042494,-0.04914841,-0.00090424286,0.00046052953,-0.0002578646,0.004303867,0.033605274,-0.03684498,0.023005063,0.00032054074,0.0035967394,0.005365688,1.8268409e-05,487.9847,0.1000061,0.010000001,-487.9847,0.12069246,0.11324695,0.08057204,0.04934937,inf,inf,inf,inf,inf,160,1,1,1,1,3,3,2,1,6,1,1,1,0,3,0,0
1771685726252000,1771685726252000,1771685726252000,1771684928340000,47.3977419,8.5455939,0.027734151,0.041290917,-0.032958984,0.004007112,-0.0025302004,-487.9847,-0.006728509,-0.009414382,-0.042294152,-0.049215894,-0.00090424286,0.00046052953,-0.0002578646,-0.053722847,-0.028079351,-0.041337214,0.023034811,0.0003206481,0.0036303732,0.005365688,1.8312669e-05,487.9847,0.1000061,0.010000001,-487.9847,0.12110002,0.11343893,0.0808719,0.04942167,inf,inf,inf,inf,inf,160,1,1,1,1,3,3,2,1,6,1,1,1,0,3,0,0
1771685726260000,1771685726260000,1771685726260000,1771684928340000,47.3977419,8.5455939,0.02773468,0.04127367,-0.033111572,0.004007112,-0.0025302004,-487.9847,-0.006833053,-0.009757368,-0.042360887,-0.049102347,-0.00090424286,0.00046052953,-0.0002578646,-0.017875427,-0.049834616,-0.017990822,0.023083897,0.0003207555,0.0036832239,0.005365688,1.8356963e-05,487.9847,0.1000061,0.010000001,-487.9847,0.12151034,0.11369073,0.08117253,0.049504273,inf,inf,inf,inf,inf,160,1,1,1,1,3,3,2,1,6,1,1,1,0,3,0,0
1771685726268000,1771685726268000,1771685726268000,1771684928340000,47.3977419,8.5455939,0.027737223,0.041254193,-0.03326416,0.004007112,-0.0025302004,-487.9847,-0.006398172,-0.009749429,-0.04220638,-0.048771333,-0.00090424286,0.00046052953,-0.0002578646,0.049445163,-0.0058512627,0.009888782,0.02311161,0.0003199794,0.003714602,0.005365688,1.8390392e-05,487.9847,0.1000061,0.010000001,-487.9847,0.121920966,0.11394337,0.08146354,0.049586747,inf,inf,inf,inf,inf,160,1,1,1,1,3,3,2,1,6,1,1,1,0,3,0,0
1771685726276000,1771685726276000,1771685726276000,1771684928340000,47.3977419,8.5455939,0.027746558,0.041243598,-0.03338623,0.004007112,-0.0025302004,-487.9847,-0.0064732023,-0.010035088,-0.042540073,-0.048907373,-0.00090424286,0.00046052953,-0.0002578646,-0.0148253925,-0.043678597,-0.05273241,0.023086702,0.00032006757,0.0036938186,0.005365688,1.8156767e-05,487.9847,0.1000061,0.010000001,-487.9847,0.11968864,0.11262419,0.07982673,0.04914312,inf,inf,inf,inf,inf,160,1,1,1,1,3,3,2,1,6,1,1,1,0,3,0,0
1771685726284000,1771685726284000,1771685726284000,1771684928340000,47.3977419,8.5455939,0.027754944,0.04122903,-0.0335083,0.004007112,-0.0025302004,-487.9847,-0.006239405,-0.010227268,-0.04251755,-0.04869187,-0.00090424286,0.00046052953,-0.0002578646,0.023907267,-0.031771258,-0.007940921,0.023065977,0.00032017473,0.0036770194,0.005365688,1.8200932e-05,487.9847,0.1000061,0.010000001,-487.9847,0.12008937,0.11287321,0.08012417,0.049226154,inf,inf,inf,inf,inf,160,1,1,1,1,3,3,2,1,6,1,1,1,0,3,0,0
1771685726292000,1771685726292000,1771685726292000,1771684928340000,47.3977419,8.5455939,0.02776487,0.0412121,-0.03363037,0.004007112,-0.0025302004,-487.9847,-0.0060233497,-0.010275646,-0.041803204,-0.047789156,-0.00090424286,0.00046052953,-0.0002578646,0.021815212,-0.013573736,0.07879454,0.023011295,0.000320282,0.0036261673,0.005365688,1.8245139e-05,487.9847,0.1000061,0.010000001,-487.9847,0.12049283,0.11312307,0.080423884,0.049309056,inf,inf,inf,inf,inf,160,1,1,1,1,3,3,2,1,6,1,1,1,0,3,0,0
1771685726300000,1771685726300000,1771685726300000,1771684928340000,47.3977419,8.5455939,0.027774824,0.041195128,-0.03375244,0.004007112,-0.0025302004,-487.9847,-0.0058956314,-0.009900255,-0.0417272,-0.047523256,-0.00090424286,0.00046052953,-0.0002578646,0.010895887,0.03960737,-0.0009583309,0.023065476,0.00032038917,0.0036840322,0.005365688,1.8289375e-05,487.9847,0.1000061,0.010000001,-487.9847,0.12089904,0.11331483,0.08072362,0.049381465,inf,inf,inf,inf,inf,160,1,1,1,1,3,3,2,1,6,1,1,1,0,3,0,0
1771685726308000,1771685726308000,1771685726308000,1771684928340000,47.3977419,8.5455939,0.027783934,0.04117854,-0.03387451,0.004007112,-0.0025302004,-487.9847,-0.0061102803,-0.009878582,-0.04166581,-0.04727663,-0.00090424286,0.00046052953,-0.0002578646,-0.0317762,-0.0044023287,-0.0025359911,0.022975896,0.00032049647,0.003597993,0.005365688,1.8333652e-05,487.9847,0.1000061,0.010000001,-487.9847,0.121308,0.113566235,0.081022665,0.04946413,inf,inf,inf,inf,inf,160,1,1,1,1,3,3,2,1,6,1,1,1,0,3,0,0
1771685726316000,1771685726316000,1771685726316000,1771684928340000,47.3977419,8.5455939,0.027789708,0.04115886,-0.0340271,0.004007112,-0.0025302004,-487.9847,-0.006315188,-0.010161247,-0.04169642,-0.047126595,-0.00090424286,0.00046052953,-0.0002578646,-0.030439762,-0.04223975,-0.013793818,0.022923807,0.0003206038,0.003549309,0.005365688,1.8377967e-05,487.9847,0.1000061,0.010000001,-487.9847,0.121719725,0.11381847,0.081323065,0.049546666,inf,inf,inf,inf,inf,160,1,1,1,1,3,3,2,1,6,1,1,1,0,3,0,0
1771685726324000,1771685726324000,1771685726324000,1771684928340000,47.3977419,8.5455939,0.027795002,0.04113868,-0.03414917,0.004007112,-0.0025302004,-487.9847,-0.0061352416,-0.009717726,-0.0416315,-0.046885453,-0.00090424286,0.00046052953,-0.0002578646,0.017782282,0.04872825,-0.0016167759,0.022941297,0.00032071126,0.0035700514,0.005365688,1.842232e-05,487.9847,0.1000061,0.010000001,-487.9847,0.12213421,0.11407154,0.08162456,0.049629074,inf,inf,inf,inf,inf,160,1,1,1,1,3,3,2,1,6,1,1,1,0,3,0,0
1771685726332000,1771685726332000,1771685726332000,1771684928340000,47.3977419,8.5455939,0.027806869,0.04112986,-0.034240723,0.004007112,-0.0025302004,-487.9847,-0.0061572036,-0.009587567,-0.04160991,-0.046666067,-0.00090424286,0.00046052953,-0.0002578646,-0.008086178,0.008463941,-0.008617061,0.022925945,0.00031991646,0.0035578008,0.005365688,1.8175699e-05,487.9847,0.1000061,0.010000001,-487.9847,0.11988449,0.11274725,0.0799674,0.049183562,inf,inf,inf,inf,inf,160,1,1,1,1,3,3,2,1,6,1,1,1,0,3,0,0
1771685726340000,1771685726340000,1771685726340000,1771684928340000,47.3977419,8.5455939,0.027817484,0.041119844,-0.034362793,0.004007112,-0.0025302004,-487.9847,-0.0061336886,-0.009710726,-0.041719034,-0.046582486,-0.00090424286,0.00046052953,-0.0002578646,-0.002276119,-0.022983,-0.024681443,0.022887541,0.00032002357,0.0035232524,0.005365688,1.8219878e-05,487.9847,0.1000061,0.010000001,-487.9847,0.120286524,0.112996675,0.0802672,0.049266532,inf,inf,inf,inf,inf,160,1,1,1,1,3,3,2,1,6,1,1,1,0,3,0,0
1771685726348000,1771685726348000,1771685726348000,1771684928340000,47.3977419,8.5455939,0.027828826,0.041106947,-0.034484863,0.004007112,-0.0025302004,-487.9847,-0.005789473,-0.0097782295,-0.041759282,-0.04643496,-0.00090424286,0.00046052953,-0.0002578646,0.037935793,-0.01581362,-0.015804077,0.022866203,0.00032013073,0.0035056355,0.005365688,1.8264098e-05,487.9847,0.1000061,0.010000001,-487.9847,0.12069131,0.11324695,0.08056687,0.04934937,inf,inf,inf,inf,inf,160,1,1,1,1,3,3,2,1,6,1,1,1,0,3,0,0
1771685726356000,1771685726356000,1771685726356000,1771684928340000,47.3977419,8.5455939,0.027839944,0.041092474,-0.034606934,0.004007112,-0.0025302004,-487.9847,-0.005920126,-0.009679916,-0.04198213,-0.046470795,-0.00090424286,0.00046052953,-0.0002578646,-0.021259515,0.0051855147,-0.0385032,0.022826666,0.00032008835,0.0034696865,0.005365688,1.8306258e-05,487.9847,0.1000061,0.010000001,-487.9847,0.121098444,0.11343893,0.080865666,0.04942167,inf,inf,inf,inf,inf,160,1,1,1,1,3,3,2,1,6,1,1,1,0,3,0,0
1771685726364000,1771685726364000,1771685726364000,1771684928340000,47.3977419,8.5455939,0.02784958,0.041077785,-0.034729004,0.004007112,-0.0025302004,-487.9847,-0.0058546076,-0.0095259715,-0.042207595,-0.046514004,-0.00090424286,0.00046052953,-0.0002578646,0.0033812174,0.012340603,-0.03857398,0.022774313,0.00032019545,0.0034210193,0.005365688,1.835054e-05,487.9847,0.1000061,0.010000001,-487.9847,0.121508725,0.11369073,0.0811659,0.049504273,inf,inf,inf,inf,inf,160,1,1,1,1,3,3,2,1,6,1,1,1,0,3,0,0
1771685726372000,1771685726372000,1771685726372000,1771684928340000,47.3977419,8.5455939,0.027858092,0.041061655,-0.034851074,0.004007112,-0.0025302004,-487.9847,-0.0060615377,-0.009637968,-0.042452797,-0.04658159,-0.00090424286,0.00046052953,-0.0002578646,-0.030556135,-0.020704806,-0.04079146,0.022756167,0.0003203026,0.003406431,0.005365688,1.8394863e-05,487.9847,0.1000061,0.010000001,-487.9847,0.12192176,0.11394337,0.08146636,0.049586747,inf,inf,inf,inf,inf,160,1,1,1,1,3,3,2,1,6,1,1,1,0,3,0,0
1771685726380000,1771685726380000,1771685726380000,1771684928340000,47.3977419,8.5455939,0.027871262,0.041060645,-0.034942627,0.004007112,-0.0025302004,-487.9847,-0.0059417044,-0.009751447,-0.042553674,-0.046489608,-0.00090424286,0.00046052953,-0.0002578646,0.0097037405,-0.02227728,-0.024111008,0.022755418,0.00032039112,0.0034091058,0.005365688,1.816111e-05,487.9847,0.1000061,0.010000001,-487.9847,0.11968934,0.11262419,0.07982933,0.04914312,inf,inf,inf,inf,inf,160,1,1,1,1,3,3,2,1,6,1,1,1,0,3,0,0
1771685726388000,1771685726388000,1771685726388000,1771684928340000,47.3977419,8.5455939,0.027884925,0.041055646,-0.035064697,0.004007112,-0.0025302004,-487.9847,-0.005740753,-0.010147288,-0.04217722,-0.045925524,-0.00090424286,0.00046052953,-0.0002578646,0.019977685,-0.057337146,0.035837755,0.022742143,0.00032049834,0.0033990215,0.005365688,1.8205274e-05,487.9847,0.1000061,0.010000001,-487.9847,0.12009008,0.11287321,0.080128714,0.049226154,inf,inf,inf,inf,inf,160,1,1,1,1,3,3,2,1,6,1,1,1,0,3,0,0
1771685726396000,1771685726396000,1771685726396000,1771684928340000,47.3977419,8.5455939,0.027899072,0.041047063,-0.035186768,0.004007112,-0.0025302004,-487.9847,-0.005690028,-0.010170055,-0.042402383,-0.04596812,-0.00090424286,0.00046052953,-0.0002578646,0.0013294902,-0.010483335,-0.039090864,0.022742689,0.0003206056,0.0034026369,0.005365688,1.8249473e-05,487.9847,0.1000061,0.010000001,-487.9847,0.12049357,0.11312307,0.080428965,0.049309056,inf,inf,inf,inf,inf,160,1,1,1,1,3,3,2,1,6,1,1,1,0,3,0,0
1771685726404000,1771685726404000,1771685726404000,1771684928340000,47.3977419,8.5455939,0.027910195,0.04103622,-0.035308838,0.004007112,-0.0025302004,-487.9847,-0.005962757,-0.0103347115,-0.042349428,-0.045732427,-0.00090424286,0.00046052953,-0.0002578646,-0.03886714,-0.027987538,-0.0042356546,0.022765817,0.0003198302,0.0034287213,0.005365688,1.8282937e-05,487.9847,0.1000061,0.010000001,-487.9847,0.120897494,0.11331483,0.080720074,0.049381465,inf,inf,inf,inf,inf,160,1,1,1,1,3,3,2,1,6,1,1,1,0,3,0,0
1771685726412000,1771685726412000,1771685726412000,1771684928340000,47.3977419,8.5455939,0.027919183,0.041022077,-0.03543091,0.004007112,-0.0025302004,-487.9847,-0.0059915185,-0.010518059,-0.042136233,-0.045341358,-0.00090424286,0.00046052953,-0.0002578646,-0.00825051,-0.030111773,0.016058328,0.022707142,0.00031993721,0.003372721,0.005365688,1.8327202e-05,487.9847,0.1000061,0.010000001,-487.9847,0.121306434,0.113566235,0.08102034,0.04946413,inf,inf,inf,inf,inf,160,1,1,1,1,3,3,2,1,6,1,1,1,0,3,0,0
1771685726420000,1771685726420000,1771685726420000,1771684928340000,47.3977419,8.5455939,0.027926853,0.041005865,-0.03555298,0.004007112,-0.0025302004,-487.9847,-0.006057097,-0.010419188,-0.042088695,-0.04512068,-0.00090424286,0.00046052953,-0.0002578646,-0.012739204,0.005375311,-0.004392117,0.022722054,0.00032004426,0.0033902037,0.005365688,1.8371506e-05,487.9847,0.1000061,0.010000001,-487.9847,0.12171813,0.11381847,0.081320554,0.049546666,inf,inf,inf,inf,inf,160,1,1,1,1,3,3,2,1,6,1,1,1,0,3,0,0
1771685726428000,1771685726428000,1771685726428000,1771684928340000,47.3977419,8.5455939,0.027934339,0.040988985,-0.03567505,0.004007112,-0.0025302004,-487.9847,-0.0058544124,-0.010353811,-0.042072315,-0.04493573,-0.00090424286,0.00046052953,-0.0002578646,0.020905577,0.0013892767,-0.008036847,0.022819193,0.00032015136,0.003489803,0.005365688,1.8415845e-05,487.9847,0.1000061,0.010000001,-487.9847,0.12213259,0.11407153,0.08162213,0.049629074,inf,inf,inf,inf,inf,160,1,1,1,1,3,3,2,1,6,1,1,1,0,3,0,0
1771685726436000,1771685726436000,1771685726436000,1771684928340000,47.3977419,8.5455939,0.027937083,0.04098931,-0.0357666,0.004007112,-0.0025302004,-487.9847,-0.0060496936,-0.010212991,-0.04191438,-0.044592783,-0.00090424286,0.00046052953,-0.0002578646,-0.028879587,0.009315177,0.008201691,0.02287483,0.00032023955,0.003547778,0.005365688,1.8180015e-05,487.9847,0.1000061,0.010000001,-487.9847,0.11988522,0.112747245,0.07997371,0.049183562,inf,inf,inf,inf,inf,160,1,1,1,1,3,3,2,1,6,1,1,1,0,3,0,0
1771685726444000,1771685726444000,1771685726444000,1771684928340000,47.3977419,8.5455939,0.02793685,0.040988453,-0.035888672,0.004007112,-0.0025302004,-487.9847,-0.0063480996,-0.010110311,-0.04160995,-0.04410853,-0.00090424286,0.00046052953,-0.0002578646,-0.041666064,0.004784627,0.026798805,0.022934053,0.0003203467,0.0036090962,0.005365688,1.8224193e-05,487.9847,0.1000061,0.010000001,-487.9847,0.120287284,0.112996675,0.08027149,0.049266532,inf,inf,inf,inf,inf,160,1,1,1,1,3,3,2,1,6,1,1,1,0,3,0,0
1771685726452000,1771685726452000,1771685726452000,1771684928340000,47.3977419,8.5455939,0.027934086,0.04098776,-0.035980225,0.004007112,-0.0025302004,-487.9847,-0.0064737434,-0.009793973,-0.04150983,-0.043833725,-0.00090424286,0.00046052953,-0.0002578646,-0.019968132,0.031723097,0.0015371478,0.022910403,0.00032045392,0.0035874355,0.005365688,1.826841e-05,487.9847,0.1000061,0.010000001,-487.9847,0.12069209,0.11324694,0.080571145,0.04934937,inf,inf,inf,inf,inf,160,1,1,1,1,3,3,2,1,6,1,1,1,0,3,0,0
1771685726460000,1771685726460000,1771685726460000,1771684928340000,47.3977419,8.5455939,0.027930759,0.040985897,-0.036102295,0.004007112,-0.0025302004,-487.9847,-0.0063052806,-0.009893899,-0.04162554,-0.04377575,-0.00090424286,0.00046052953,-0.0002578646,0.01689349,-0.020094186,-0.025317071,0.022870548,0.00032056117,0.0035494599,0.005365688,1.8312665e-05,487.9847,0.1000061,0.010000001,-487.9847,0.12109964,0.11343892,0.08087097,0.04942167,inf,inf,inf,inf,inf,160,1,1,1,1,3,3,2,1,6,1,1,1,0,3,0,0
1771685726468000,1771685726468000,1771685726468000,1771684928340000,47.3977419,8.5455939,0.027927475,0.040982872,-0.036224365,0.004007112,-0.0025302004,-487.9847,-0.0063723237,-0.009629693,-0.041863684,-0.043845218,-0.00090424286,0.00046052953,-0.0002578646,-0.012437488,0.025572924,-0.04035467,0.022857707,0.00031978637,0.0035383957,0.005365688,1.834611e-05,487.9847,0.1000061,0.010000001,-487.9847,0.121507555,0.11369073,0.08116186,0.049504273,inf,inf,inf,inf,inf,160,1,1,1,1,3,3,2,1,6,1,1,1,0,3,0,0
1771685726476000,1771685726476000,1771685726476000,1771684928340000,47.3977419,8.5455939,0.02792301,0.04097957,-0.036315918,0.004007112,-0.0025302004,-487.9847,-0.006241156,-0.009610129,-0.041844994,-0.043662723,-0.00090424286,0.00046052953,-0.0002578646,0.012438763,-0.004798927,-0.007992144,0.022921043,0.00031989336,0.0036038547,0.005365688,1.8390432e-05,487.9847,0.1000061,0.010000001,-487.9847,0.12192057,0.11394336,0.081462316,0.049586747,inf,inf,inf,inf,inf,160,1,1,1,1,3,3,2,1,6,1,1,1,0,3,0,0
1771685726484000,1771685726484000,1771685726484000,1771684928340000,47.3977419,8.5455939,0.027925214,0.04099039,-0.03643799,0.004007112,-0.0025302004,-487.9847,-0.0063687437,-0.009839878,-0.04172885,-0.04337073,-0.00090424286,0.00046052953,-0.0002578646,-0.020513033,-0.037324958,0.0029397195,0.022903442,0.0003199814,0.0035882886,0.005365688,1.8156818e-05,487.9847,0.1000061,0.010000001,-487.9847,0.119688265,0.11262418,0.079825945,0.04914312,inf,inf,inf,inf,inf,160,1,1,1,1,3,3,2,1,6,1,1,1,0,3,0,0
1771685726492000,1771685726492000,1771685726492000,1771684928340000,47.3977419,8.5455939,0.027925689,0.040997405,-0.03652954,0.004007112,-0.0025302004,-487.9847,-0.006358961,-0.010072841,-0.04183551,-0.043306798,-0.00090424286,0.00046052953,-0.0002578646,-0.0032250471,-0.037480842,-0.02462277,0.02282436,0.00032008838,0.0035110242,0.005365688,1.8200975e-05,487.9847,0.1000061,0.010000001,-487.9847,0.120088995,0.112873204,0.0801256,0.049226154,inf,inf,inf,inf,inf,160,1,1,1,1,3,3,2,1,6,1,1,1,0,3,0,0
1771685726500000,1771685726500000,1771685726500000,1771684928340000,47.3977419,8.5455939,0.027926248,0.041001033,-0.03665161,0.004007112,-0.0025302004,-487.9847,-0.0061374134,-0.010074025,-0.041691717,-0.042997494,-0.00090424286,0.00046052953,-0.0002578646,0.023356684,-0.008269986,0.0069630328,0.022799762,0.00032019548,0.0034881397,0.005365688,1.8245177e-05,487.9847,0.1000061,0.010000001,-487.9847,0.120492466,0.11312307,0.08042551,0.049309056,inf,inf,inf,inf,inf,160,1,1,1,1,3,3,2,1,6,1,1,1,0,3,0,0
1771685726508000,1771685726508000,1771685726508000,1771684928340000,47.3977419,8.5455939,0.027927563,0.041003555,-0.03677368,0.004007112,-0.0025302004,-487.9847,-0.0060389373,-0.009958068,-0.04201833,-0.043159477,-0.00090424286,0.00046052953,-0.0002578646,0.008075706,0.0066007636,-0.05170982,0.02275711,0.0003203026,0.003447087,0.005365688,1.8289411e-05,487.9847,0.1000061,0.010000001,-487.9847,0.12089868,0.11331483,0.08072596,0.049381465,inf,inf,inf,inf,inf,160,1,1,1,1,3,3,2,1,6,1,1,1,0,3,0,0
1771685726516000,1771685726516000,1771685726516000,1771684928340000,47.3977419,8.5455939,0.027926957,0.0410047,-0.036895752,0.004007112,-0.0025302004,-487.9847,-0.0063520586,-0.009851137,-0.042188276,-0.043169633,-0.00090424286,0.00046052953,-0.0002578646,-0.043272126,0.0057035238,-0.031857748,0.022752944,0.00032040977,0.0034444104,0.005365688,1.8333685e-05,487.9847,0.1000061,0.010000001,-487.9847,0.12130765,0.11356623,0.08102679,0.04946413,inf,inf,inf,inf,inf,160,1,1,1,1,3,3,2,1,6,1,1,1,0,3,0,0
1771685726524000,1771685726524000,1771685726524000,1771684928340000,47.3977419,8.5455939,0.027924564,0.04100392,-0.037017822,0.004007112,-0.0025302004,-487.9847,-0.006248587,-0.0100718485,-0.042973027,-0.04379923,-0.00090424286,0.00046052953,-0.0002578646,0.008901243,-0.03502721,-0.10844739,0.02277775,0.000320517,0.0034705955,0.005365688,1.8377998e-05,487.9847,0.1000061,0.010000001,-487.9847,0.12171938,0.11381847,0.08132783,0.049546666,inf,inf,inf,inf,inf,160,1,1,1,1,3,3,2,1,6,1,1,1,0,3,0,0
1771685726532000,1771685726532000,1771685726532000,1771684928340000,47.3977419,8.5455939,0.027922807,0.040997446,-0.037139893,0.004007112,-0.0025302004,-487.9847,-0.0060809474,-0.010644242,-0.04330401,-0.043979514,-0.00090424286,0.00046052953,-0.0002578646,0.017024783,-0.07877255,-0.051473264,0.022814125,0.00032062427,0.0035082507,0.005365688,1.8422346e-05,487.9847,0.1000061,0.010000001,-487.9847,0.12213388,0.11407153,0.081628956,0.049629077,inf,inf,inf,inf,inf,160,1,1,1,1,3,3,2,1,6,1,1,1,0,3,0,0
1771685726540000,1771685726540000,1771685726540000,1771684928340000,47.3977419,8.5455939,0.027936835,0.04100413,-0.037261963,0.004007112,-0.0025302004,-487.9847,-0.005978082,-0.010634669,-0.043087445,-0.043608803,-0.00090424286,0.00046052953,-0.0002578646,0.007986011,-0.007387526,0.015969852,0.02285699,0.00031983003,0.0035522948,0.005365688,1.8175688e-05,487.9847,0.1000061,0.010000001,-487.9847,0.119884156,0.112747245,0.0799702,0.049183562,inf,inf,inf,inf,inf,160,1,1,1,1,3,3,2,1,6,1,1,1,0,3,0,0
1771685726548000,1771685726548000,1771685726548000,1771684928340000,47.3977419,8.5455939,0.027951213,0.041008472,-0.037384033,0.004007112,-0.0025302004,-487.9847,-0.0057606297,-0.0108129755,-0.042992454,-0.04336425,-0.00090424286,0.00046052953,-0.0002578646,0.02243266,-0.030632041,0.0010486691,0.022898607,0.000319937,0.00359418,0.005365688,1.8219864e-05,487.9847,0.1000061,0.010000001,-487.9847,0.1202862,0.11299667,0.0802703,0.049266532,inf,inf,inf,inf,inf,160,1,1,1,1,3,3,2,1,6,1,1,1,0,3,0,0
1771685726556000,1771685726556000,1771685726556000,1771684928340000,47.3977419,8.5455939,0.027966416,0.041008625,-0.03753662,0.004007112,-0.0025302004,-487.9847,-0.0055427765,-0.010948726,-0.042842295,-0.043068945,-0.00090424286,0.00046052953,-0.0002578646,0.022564696,-0.025055218,0.008212867,0.02289779,0.000319895,0.0035935263,0.005365688,1.8261995e-05,487.9847,0.1000061,0.010000001,-487.9847,0.1206906,0.11324694,0.080568105,0.04934937,inf,inf,inf,inf,inf,160,1,1,1,1,3,3,2,1,6,1,1,1,0,3,0,0
1771685726564000,1771685726564000,1771685726564000,1771684928340000,47.3977419,8.5455939,0.027981857,0.041007485,-0.03765869,0.004007112,-0.0025302004,-487.9847,-0.0054243915,-0.010710618,-0.042861626,-0.042943437,-0.00090424286,0.00046052953,-0.0002578646,0.010250057,0.021913003,-0.012852251,0.022926876,0.00032000197,0.0036217733,0.005365688,1.830624e-05,487.9847,0.1000061,0.010000001,-487.9847,0.12109812,0.11343892,0.08086757,0.04942167,inf,inf,inf,inf,inf,160,1,1,1,1,3,3,2,1,6,1,1,1,0,3,0,0
1771685726572000,1771685726572000,1771685726572000,1771684928340000,47.3977419,8.5455939,0.027996192,0.041005,-0.03778076,0.004007112,-0.0025302004,-487.9847,-0.005504538,-0.010797724,-0.04311151,-0.043052856,-0.00090424286,0.00046052953,-0.0002578646,-0.01445091,-0.018511275,-0.041414514,0.022941114,0.00032010896,0.0036350894,0.005365688,1.835052e-05,487.9847,0.1000061,0.010000001,-487.9847,0.12150841,0.11369072,0.081167735,0.049504273,inf,inf,inf,inf,inf,160,1,1,1,1,3,3,2,1,6,1,1,1,0,3,0,0
1771685726580000,1771685726580000,1771685726580000,1771684928340000,47.3977419,8.5455939,0.02800894,0.040999245,-0.03793335,0.004007112,-0.0025302004,-487.9847,-0.0056066243,-0.010991542,-0.043147568,-0.042952694,-0.00090424286,0.00046052953,-0.0002578646,-0.017078577,-0.031625945,-0.014435965,0.02286593,0.00032021612,0.003558909,0.005365688,1.8394847e-05,487.9847,0.1000061,0.010000001,-487.9847,0.12192146,0.11394336,0.08146837,0.049586747,inf,inf,inf,inf,inf,160,1,1,1,1,3,3,2,1,6,1,1,1,0,3,0,0
1771685726588000,1771685726588000,1771685726588000,1771684928340000,47.3977419,8.5455939,0.028025629,0.041000903,-0.03805542,0.004007112,-0.0025302004,-487.9847,-0.005796465,-0.011024417,-0.042935807,-0.042598065,-0.00090424286,0.00046052953,-0.0002578646,-0.028615933,-0.0125726955,0.015459488,0.022767117,0.0003203044,0.0034590228,0.005365688,1.8161063e-05,487.9847,0.1000061,0.010000001,-487.9847,0.119689025,0.11262418,0.07983129,0.049143124,inf,inf,inf,inf,inf,160,1,1,1,1,3,3,2,1,6,1,1,1,0,3,0,0
1771685726596000,1771685726596000,1771685726596000,1771684928340000,47.3977419,8.5455939,0.028039744,0.041001026,-0.038208008,0.004007112,-0.0025302004,-487.9847,-0.00594878,-0.010889154,-0.04312421,-0.042648118,-0.00090424286,0.00046052953,-0.0002578646,-0.023795858,0.008685545,-0.03428617,0.0227196,0.0003204115,0.0034102588,0.005365688,1.820522e-05,487.9847,0.1000061,0.010000001,-487.9847,0.12008978,0.112873204,0.080129795,0.049226154,inf,inf,inf,inf,inf,160,1,1,1,1,3,3,2,1,6,1,1,1,0,3,0,0
1771685726604000,1771685726604000,1771685726604000,1771684928340000,47.3977419,8.5455939,0.02805379,0.04099964,-0.038330078,0.004007112,-0.0025302004,-487.9847,-0.005771303,-0.0110947145,-0.04300322,-0.042393208,-0.00090424286,0.00046052953,-0.0002578646,0.017354067,-0.03386766,0.0046552154,0.022722473,0.00031963753,0.0034118234,0.005365688,1.8238708e-05,487.9847,0.1000061,0.010000001,-487.9847,0.120491005,0.11312306,0.08041994,0.049309056,inf,inf,inf,inf,inf,160,1,1,1,1,3,3,2,1,6,1,1,1,0,3,0,0
1771685726612000,1771685726612000,1771685726612000,1771684928340000,47.3977419,8.5455939,0.028068816,0.040994238,-0.038482666,0.004007112,-0.0025302004,-487.9847,-0.005432797,-0.011322395,-0.042318366,-0.041574705,-0.00090424286,0.00046052953,-0.0002578646,0.037603755,-0.03639857,0.07524713,0.02269086,0.00031974446,0.0033802553,0.005365688,1.8282937e-05,487.9847,0.1000061,0.010000001,-487.9847,0.12089719,0.11331482,0.0807202,0.049381465,inf,inf,inf,inf,inf,160,1,1,1,1,3,3,2,1,6,1,1,1,0,3,0,0
1771685726620000,1771685726620000,1771685726620000,1771684928340000,47.3977419,8.5455939,0.028085232,0.040985446,-0.038604736,0.004007112,-0.0025302004,-487.9847,-0.0051789945,-0.011462931,-0.04198999,-0.04111694,-0.00090424286,0.00046052953,-0.0002578646,0.027141344,-0.025277013,0.030944122,0.022689017,0.00031985136,0.0033783945,0.005365688,1.8327199e-05,487.9847,0.1000061,0.010000001,-487.9847,0.12130613,0.11356623,0.08102095,0.04946413,inf,inf,inf,inf,inf,160,1,1,1,1,3,3,2,1,6,1,1,1,0,3,0,0
1771685726628000,1771685726628000,1771685726628000,1771684928340000,47.3977419,8.5455939,0.028102608,0.04097249,-0.038726807,0.004007112,-0.0025302004,-487.9847,-0.0048727626,-0.0118725095,-0.04154806,-0.040549725,-0.00090424286,0.00046052953,-0.0002578646,0.033812545,-0.0586859,0.045388002,0.02270539,0.0003199583,0.0033946945,0.005365688,1.8371498e-05,487.9847,0.1000061,0.010000001,-487.9847,0.121717826,0.11381846,0.0813214,0.049546666,inf,inf,inf,inf,inf,160,1,1,1,1,3,3,2,1,6,1,1,1,0,3,0,0
1771685726636000,1771685726636000,1771685726636000,1771684928340000,47.3977419,8.5455939,0.028121414,0.04095527,-0.038879395,0.004007112,-0.0025302004,-487.9847,-0.004572834,-0.012020723,-0.041439246,-0.040319618,-0.00090424286,0.00046052953,-0.0002578646,0.033137385,-0.025801891,0.0039907168,0.02275171,0.00032006527,0.0034408676,0.005365688,1.8415838e-05,487.9847,0.1000061,0.010000001,-487.9847,0.122132294,0.114071526,0.0816218,0.049629077,inf,inf,inf,inf,inf,160,1,1,1,1,3,3,2,1,6,1,1,1,0,3,0,0
1771685726644000,1771685726644000,1771685726644000,1771684928340000,47.3977419,8.5455939,0.028138537,0.040952142,-0.039001465,0.004007112,-0.0025302004,-487.9847,-0.004201508,-0.012220949,-0.041349042,-0.04009618,-0.00090424286,0.00046052953,-0.0002578646,0.041985795,-0.033734605,0.00040279698,0.022824999,0.0003201534,0.0035139485,0.005365688,1.818001e-05,487.9847,0.1000061,0.010000001,-487.9847,0.11988494,0.112747245,0.07997364,0.049183562,inf,inf,inf,inf,inf,160,1,1,1,1,3,3,2,1,6,1,1,1,0,3,0,0
1771685726652000,1771685726652000,1771685726652000,1771684928340000,47.3977419,8.5455939,0.028155262,0.04094489,-0.039123535,0.004007112,-0.0025302004,-487.9847,-0.004400874,-0.012525724,-0.041479677,-0.040097963,-0.00090424286,0.00046052953,-0.0002578646,-0.029235171,-0.04655679,-0.026929656,0.022822753,0.00032026044,0.003511311,0.005365688,1.8224186e-05,487.9847,0.1000061,0.010000001,-487.9847,0.120287,0.11299667,0.08027289,0.049266532,inf,inf,inf,inf,inf,160,1,1,1,1,3,3,2,1,6,1,1,1,0,3,0,0
1771685726660000,1771685726660000,1771685726660000,1771684928340000,47.3977419,8.5455939,0.028170386,0.0409345,-0.039245605,0.004007112,-0.0025302004,-487.9847,-0.0043207994,-0.012409822,-0.041580707,-0.040074363,-0.00090424286,0.00046052953,-0.0002578646,0.0058056726,0.0062672794,-0.022964085,0.022783522,0.00032036752,0.003471646,0.005365688,1.8268398e-05,487.9847,0.1000061,0.010000001,-487.9847,0.120691806,0.11324694,0.08057359,0.04934937,inf,inf,inf,inf,inf,160,1,1,1,1,3,3,2,1,6,1,1,1,0,3,0,0
1771685726668000,1771685726668000,1771685726668000,1771684928340000,47.3977419,8.5455939,0.028186899,0.040922653,-0.039367676,0.004007112,-0.0025302004,-487.9847,-0.00389176,-0.012329506,-0.041692596,-0.04006064,-0.00090424286,0.00046052953,-0.0002578646,0.049535073,0.002056973,-0.024237202,0.022829304,0.00032047462,0.00351694,0.005365688,1.831265e-05,487.9847,0.1000061,0.010000001,-487.9847,0.12109937,0.11343892,0.08087398,0.04942167,inf,inf,inf,inf,inf,160,1,1,1,1,3,3,2,1,6,1,1,1,0,3,0,0
1771685726676000,1771685726676000,1771685726676000,1771684928340000,47.3977419,8.5455939,0.028205331,0.040911127,-0.039489746,0.004007112,-0.0025302004,-487.9847,-0.004108987,-0.0117806755,-0.041782584,-0.04002898,-0.00090424286,0.00046052953,-0.0002578646,-0.03148062,0.06084069,-0.021244397,0.022834567,0.0003197005,0.0035216543,0.005365688,1.8346098e-05,487.9847,0.1000061,0.010000001,-487.9847,0.12150729,0.11369072,0.08116697,0.049504273,inf,inf,inf,inf,inf,160,1,1,1,1,3,3,2,1,6,1,1,1,0,3,0,0
1771685726684000,1771685726684000,1771685726684000,1771684928340000,47.3977419,8.5455939,0.028221745,0.040900685,-0.039642334,0.004007112,-0.0025302004,-487.9847,-0.0040653385,-0.011742848,-0.041830577,-0.039959017,-0.00090424286,0.00046052953,-0.0002578646,0.0012354708,-0.0028101748,-0.0157468,0.02283771,0.00031980738,0.0035241111,0.005365688,1.8390416e-05,487.9847,0.1000061,0.010000001,-487.9847,0.121920325,0.11394336,0.08146847,0.049586747,inf,inf,inf,inf,inf,160,1,1,1,1,3,3,2,1,6,1,1,1,0,3,0,0
1771685726692000,1771685726692000,1771685726692000,1771684928340000,47.3977419,8.5455939,0.02822458,0.040897686,-0.039764404,0.004007112,-0.0025302004,-487.9847,-0.003880264,-0.011895902,-0.041552536,-0.03955277,-0.00090424286,0.00046052953,-0.0002578646,0.019398069,-0.027784523,0.02378784,0.022736525,0.00031989533,0.003422191,0.005365688,1.8156717e-05,487.9847,0.1000061,0.010000001,-487.9847,0.11968798,0.11262418,0.07983136,0.049143124,inf,inf,inf,inf,inf,160,1,1,1,1,3,3,2,1,6,1,1,1,0,3,0,0
1771685726700000,1771685726700000,1771685726700000,1771684928340000,47.3977419,8.5455939,0.02822754,0.040893007,-0.039886475,0.004007112,-0.0025302004,-487.9847,-0.0039847316,-0.0117542045,-0.040970452,-0.03884654,-0.00090424286,0.00046052953,-0.0002578646,-0.01670503,0.009302386,0.062069852,0.022667397,0.00032000226,0.0033521908,0.005365688,1.8200875e-05,487.9847,0.1000061,0.010000001,-487.9847,0.12008872,0.112873204,0.08013059,0.049226157,inf,inf,inf,inf,inf,160,1,1,1,1,3,3,2,1,6,1,1,1,0,3,0,0
1771685726708000,1771685726708000,1771685726708000,1771684928340000,47.3977419,8.5455939,0.028228045,0.040885724,-0.040008545,0.004007112,-0.0025302004,-487.9847,-0.004282827,-0.011950536,-0.040719517,-0.038475424,-0.00090424286,0.00046052953,-0.0002578646,-0.040819,-0.03271359,0.020944977,0.022599446,0.00032010925,0.0032833475,0.005365688,1.8245071e-05,487.9847,0.1000061,0.010000001,-487.9847,0.120492205,0.11312306,0.080429964,0.04930906,inf,inf,inf,inf,inf,160,1,1,1,1,3,3,2,1,6,1,1,1,0,3,0,0
1771685726716000,1771685726716000,1771685726716000,1771684928340000,47.3977419,8.5455939,0.028226733,0.040875047,-0.040130615,0.004007112,-0.0025302004,-487.9847,-0.0043819738,-0.01203338,-0.04044657,-0.038083132,-0.00090424286,0.00046052953,-0.0002578646,-0.015859973,-0.01829334,0.023839993,0.022518883,0.00032021632,0.0032018642,0.005365688,1.8289307e-05,487.9847,0.1000061,0.010000001,-487.9847,0.120898426,0.11331482,0.080730006,0.04938147,inf,inf,inf,inf,inf,160,1,1,1,1,3,3,2,1,6,1,1,1,0,3,0,0
1771685726724000,1771685726724000,1771685726724000,1771684928340000,47.3977419,8.5455939,0.028223615,0.04086273,-0.040252686,0.004007112,-0.0025302004,-487.9847,-0.004586965,-0.011866695,-0.040516123,-0.038037162,-0.00090424286,0.00046052953,-0.0002578646,-0.02900289,0.013128072,-0.018715857,0.022542672,0.00032032336,0.0032247524,0.005365688,1.8333576e-05,487.9847,0.1000061,0.010000001,-487.9847,0.12130741,0.11356623,0.08103083,0.049464133,inf,inf,inf,inf,inf,160,1,1,1,1,3,3,2,1,6,1,1,1,0,3,0,0
1771685726732000,1771685726732000,1771685726732000,1771684928340000,47.3977419,8.5455939,0.028218957,0.040849656,-0.040374756,0.004007112,-0.0025302004,-487.9847,-0.0046009575,-0.011727115,-0.04017622,-0.037585393,-0.00090424286,0.00046052953,-0.0002578646,-0.0050430023,0.009961733,0.032716427,0.022602595,0.00032043058,0.0032837926,0.005365688,1.837789e-05,487.9847,0.1000061,0.010000001,-487.9847,0.12171916,0.11381846,0.08133138,0.04954667,inf,inf,inf,inf,inf,160,1,1,1,1,3,3,2,1,6,1,1,1,0,3,0,0
1771685726740000,1771685726740000,1771685726740000,1771684928340000,47.3977419,8.5455939,0.028215826,0.040836513,-0.040496826,0.004007112,-0.0025302004,-487.9847,-0.0043593706,-0.011558531,-0.03981019,-0.037111063,-0.00090424286,0.00046052953,-0.0002578646,0.026874144,0.013637651,0.03622565,0.022590196,0.0003196571,0.0032705306,0.005365688,1.841132e-05,487.9847,0.1000061,0.010000001,-487.9847,0.12213119,0.114071526,0.08162196,0.04962908,inf,inf,inf,inf,inf,160,1,1,1,1,3,3,2,1,6,1,1,1,0,3,0,0
1771685726748000,1771685726748000,1771685726748000,1771684928340000,47.3977419,8.5455939,0.02820985,0.040833786,-0.04058838,0.004007112,-0.0025302004,-487.9847,-0.004439907,-0.011530175,-0.03934525,-0.036521416,-0.00090424286,0.00046052953,-0.0002578646,-0.013540447,-0.0050629377,0.047141682,0.02259143,0.0003197446,0.0032721958,0.005365688,1.8175568e-05,487.9847,0.1000061,0.010000001,-487.9847,0.11988392,0.112747245,0.07997392,0.049183566,inf,inf,inf,inf,inf,160,1,1,1,1,3,3,2,1,6,1,1,1,0,3,0,0
1771685726756000,1771685726756000,1771685726756000,1771684928340000,47.3977419,8.5455939,0.02820193,0.04082752,-0.04067993,0.004007112,-0.0025302004,-487.9847,-0.0048446865,-0.011690636,-0.03930266,-0.03635825,-0.00090424286,0.00046052953,-0.0002578646,-0.05401399,-0.028295647,-0.0053741965,0.022660939,0.00031970293,0.00334206,0.005365688,1.8217668e-05,487.9847,0.1000061,0.010000001,-487.9847,0.12028559,0.11299667,0.08027148,0.049266536,inf,inf,inf,inf,inf,160,1,1,1,1,3,3,2,1,6,1,1,1,0,3,0,0
1771685726764000,1771685726764000,1771685726764000,1771684928340000,47.3977419,8.5455939,0.028190853,0.040820297,-0.040802002,0.004007112,-0.0025302004,-487.9847,-0.0050176946,-0.011238011,-0.03907285,-0.036011964,-0.00090424286,0.00046052953,-0.0002578646,-0.024960065,0.048572037,0.018298624,0.022658953,0.00031980974,0.0033404003,0.005365688,1.8261871e-05,487.9847,0.1000061,0.010000001,-487.9847,0.120690376,0.11324693,0.080569625,0.04934938,inf,inf,inf,inf,inf,160,1,1,1,1,3,3,2,1,6,1,1,1,0,3,0,0
1771685726772000,1771685726772000,1771685726772000,1771684928340000,47.3977419,8.5455939,0.028179677,0.040814318,-0.040893555,0.004007112,-0.0025302004,-487.9847,-0.004874888,-0.010967726,-0.038676683,-0.035499413,-0.00090424286,0.00046052953,-0.0002578646,0.014593773,0.026006259,0.039226837,0.022633586,0.00031991652,0.003315359,0.005365688,1.8306107e-05,487.9847,0.1000061,0.010000001,-487.9847,0.12109791,0.11343891,0.080868915,0.049421676,inf,inf,inf,inf,inf,160,1,1,1,1,3,3,2,1,6,1,1,1,0,3,0,0
1771685726780000,1771685726780000,1771685726780000,1771684928340000,47.3977419,8.5455939,0.028168833,0.040806666,-0.041015625,0.004007112,-0.0025302004,-487.9847,-0.0048578884,-0.011104252,-0.03838659,-0.035097156,-0.00090424286,0.00046052953,-0.0002578646,-0.0010556628,-0.02462278,0.026226973,0.022625212,0.0003200234,0.0033072918,0.005365688,1.8350383e-05,487.9847,0.1000061,0.010000001,-487.9847,0.121508196,0.11369072,0.08116821,0.04950428,inf,inf,inf,inf,inf,160,1,1,1,1,3,3,2,1,6,1,1,1,0,3,0,0
1771685726788000,1771685726788000,1771685726788000,1771684928340000,47.3977419,8.5455939,0.02815749,0.04079541,-0.041107178,0.004007112,-0.0025302004,-487.9847,-0.0048809415,-0.011285377,-0.038031284,-0.034633838,-0.00090424286,0.00046052953,-0.0002578646,-0.005986237,-0.02997844,0.03463076,0.022600807,0.00032013026,0.0032831891,0.005365688,1.8394698e-05,487.9847,0.1000061,0.010000001,-487.9847,0.12192124,0.11394335,0.08146865,0.049586754,inf,inf,inf,inf,inf,160,1,1,1,1,3,3,2,1,6,1,1,1,0,3,0,0
1771685726796000,1771685726796000,1771685726796000,1771684928340000,47.3977419,8.5455939,0.028141841,0.040795997,-0.04119873,0.004007112,-0.0025302004,-487.9847,-0.0047592823,-0.0110198315,-0.038296852,-0.034769617,-0.00090424286,0.00046052953,-0.0002578646,0.01217894,0.024485014,-0.04455633,0.022554101,0.0003202181,0.0032367758,0.005365688,1.8160921e-05,487.9847,0.1000061,0.010000001,-487.9847,0.11968882,0.112624176,0.079831935,0.04914313,inf,inf,inf,inf,inf,160,1,1,1,1,3,3,2,1,6,1,1,1,0,3,0,0
1771685726804000,1771685726804000,1771685726804000,1771684928340000,47.3977419,8.5455939,0.028126998,0.04079546,-0.041290283,0.004007112,-0.0025302004,-487.9847,-0.0046569128,-0.010869758,-0.038257945,-0.034605842,-0.00090424286,0.00046052953,-0.0002578646,0.009844732,0.010300267,-0.0062058675,0.02250441,0.00032032514,0.0031872555,0.005365688,1.8205079e-05,487.9847,0.1000061,0.010000001,-487.9847,0.12008957,0.1128732,0.08013159,0.04922616,inf,inf,inf,inf,inf,160,1,1,1,1,3,3,2,1,6,1,1,1,0,3,0,0
1771685726812000,1771685726812000,1771685726812000,1771684928340000,47.3977419,8.5455939,0.028112749,0.04079521,-0.04135132,0.004007112,-0.0025302004,-487.9847,-0.0045597884,-0.010389413,-0.038126405,-0.03435417,-0.00090424286,0.00046052953,-0.0002578646,0.009240822,0.051958025,0.005655456,0.022528239,0.00031955176,0.003211252,0.005365688,1.8238567e-05,487.9847,0.1000061,0.010000001,-487.9847,0.120490804,0.11312306,0.08042235,0.049309064,inf,inf,inf,inf,inf,160,1,1,1,1,3,3,2,1,6,1,1,1,0,3,0,0
1771685726820000,1771685726820000,1771685726820000,1771684928340000,47.3977419,8.5455939,0.028100165,0.040794436,-0.04144287,0.004007112,-0.0025302004,-487.9847,-0.004253889,-0.010554765,-0.037984997,-0.034092177,-0.00090424286,0.00046052953,-0.0002578646,0.035410997,-0.02851966,0.0070077362,0.02252854,0.0003196585,0.0032105665,0.005365688,1.8282786e-05,487.9847,0.1000061,0.010000001,-487.9847,0.120896995,0.11331482,0.080722705,0.049381472,inf,inf,inf,inf,inf,160,1,1,1,1,3,3,2,1,6,1,1,1,0,3,0,0
1771685726828000,1771685726828000,1771685726828000,1771684928340000,47.3977419,8.5455939,0.028087761,0.040790554,-0.041534424,0.004007112,-0.0025302004,-487.9847,-0.00437611,-0.010427392,-0.037821673,-0.033812836,-0.00090424286,0.00046052953,-0.0002578646,-0.018035034,0.008297222,0.010018702,0.022533322,0.00031976518,0.0032143625,0.005365688,1.8327042e-05,487.9847,0.1000061,0.010000001,-487.9847,0.121305935,0.11356622,0.08102299,0.049464133,inf,inf,inf,inf,inf,160,1,1,1,1,3,3,2,1,6,1,1,1,0,3,0,0
1771685726836000,1771685726836000,1771685726836000,1771684928340000,47.3977419,8.5455939,0.028075192,0.040787015,-0.041625977,0.004007112,-0.0025302004,-487.9847,-0.0043369546,-0.010181217,-0.037550967,-0.033430517,-0.00090424286,0.00046052953,-0.0002578646,0.0022008237,0.02336399,0.023705417,0.0224881,0.000319872,0.0031681578,0.005365688,1.8371338e-05,487.9847,0.1000061,0.010000001,-487.9847,0.12171765,0.11381846,0.08132358,0.04954667,inf,inf,inf,inf,inf,160,1,1,1,1,3,3,2,1,6,1,1,1,0,3,0,0
1771685726844000,1771685726844000,1771685726844000,1771684928340000,47.3977419,8.5455939,0.028061077,0.04078191,-0.04171753,0.004007112,-0.0025302004,-487.9847,-0.004580636,-0.010215039,-0.037314516,-0.033086747,-0.00090424286,0.00046052953,-0.0002578646,-0.033090916,-0.0114237955,0.019679775,0.022469422,0.00031997886,0.0031485013,0.005365688,1.8415672e-05,487.9847,0.1000061,0.010000001,-487.9847,0.122132115,0.114071526,0.08162369,0.049629085,inf,inf,inf,inf,inf,160,1,1,1,1,3,3,2,1,6,1,1,1,0,3,0,0
1771685726852000,1771685726852000,1771685726852000,1771684928340000,47.3977419,8.5455939,0.028042544,0.040787786,-0.041809082,0.004007112,-0.0025302004,-487.9847,-0.004376213,-0.010224373,-0.03743103,-0.033077385,-0.00090424286,0.00046052953,-0.0002578646,0.022965752,-0.009693316,-0.025928019,0.022448473,0.00032006617,0.003126589,0.005365688,1.8179853e-05,487.9847,0.1000061,0.010000001,-487.9847,0.119884774,0.11274723,0.07997367,0.04918357,inf,inf,inf,inf,inf,160,1,1,1,1,3,3,2,1,6,1,1,1,0,3,0,0
1771685726860000,1771685726860000,1771685726860000,1771684928340000,47.3977419,8.5455939,0.02802627,0.040792264,-0.041870117,0.004007112,-0.0025302004,-487.9847,-0.0040935343,-0.009920104,-0.037368868,-0.03289447,-0.00090424286,0.00046052953,-0.0002578646,0.03280914,0.02974938,-0.0033001413,0.022446774,0.0003201731,0.0031238175,0.005365688,1.8224026e-05,487.9847,0.1000061,0.010000001,-487.9847,0.12028684,0.11299666,0.0802724,0.04926654,inf,inf,inf,inf,inf,160,1,1,1,1,3,3,2,1,6,1,1,1,0,3,0,0
1771685726868000,1771685726868000,1771685726868000,1771684928340000,47.3977419,8.5455939,0.02801065,0.040797755,-0.04196167,0.004007112,-0.0025302004,-487.9847,-0.004155776,-0.009599971,-0.037073694,-0.032483578,-0.00090424286,0.00046052953,-0.0002578646,-0.01024177,0.03197362,0.026110092,0.022480132,0.00032027994,0.0031561176,0.005365688,1.826823e-05,487.9847,0.1000061,0.010000001,-487.9847,0.12069164,0.11324693,0.08057144,0.04934938,inf,inf,inf,inf,inf,160,1,1,1,1,3,3,2,1,6,1,1,1,0,3,0,0
1771685726876000,1771685726876000,1771685726876000,1771684928340000,47.3977419,8.5455939,0.027994365,0.04080094,-0.042022705,0.004007112,-0.0025302004,-487.9847,-0.004256822,-0.009968197,-0.037070174,-0.032366227,-0.00090424286,0.00046052953,-0.0002578646,-0.015103452,-0.053911917,-0.01017237,0.022581842,0.00031950718,0.0032567787,0.005365688,1.83017e-05,487.9847,0.1000061,0.010000001,-487.9847,0.12109686,0.113438904,0.080862254,0.049421676,inf,inf,inf,inf,inf,160,1,1,1,1,3,3,2,1,6,1,1,1,0,3,0,0
1771685726884000,1771685726884000,1771685726884000,1771684928340000,47.3977419,8.5455939,0.027977165,0.040801205,-0.042114258,0.004007112,-0.0025302004,-487.9847,-0.004408123,-0.00985681,-0.037280653,-0.03246776,-0.00090424286,0.00046052953,-0.0002578646,-0.02132539,0.0062695295,-0.0366508,0.022555234,0.00031961387,0.003229692,0.005365688,1.8345974e-05,487.9847,0.1000061,0.010000001,-487.9847,0.121507116,0.11369071,0.081161626,0.04950428,inf,inf,inf,inf,inf,160,1,1,1,1,3,3,2,1,6,1,1,1,0,3,0,0
1771685726892000,1771685726892000,1771685726892000,1771684928340000,47.3977419,8.5455939,0.027960008,0.040799785,-0.04220581,0.004007112,-0.0025302004,-487.9847,-0.0041010417,-0.009916518,-0.036909543,-0.031992517,-0.00090424286,0.00046052953,-0.0002578646,0.03603466,-0.014898748,0.036311798,0.0225508,0.00031972062,0.0032247934,0.005365688,1.8390288e-05,487.9847,0.1000061,0.010000001,-487.9847,0.12192012,0.11394335,0.08146132,0.049586754,inf,inf,inf,inf,inf,160,1,1,1,1,3,3,2,1,6,1,1,1,0,3,0,0
1771685726900000,1771685726900000,1771685726900000,1771684928340000,47.3977419,8.5455939,0.027941665,0.040821813,-0.042266846,0.004007112,-0.0025302004,-487.9847,-0.004034585,-0.010043314,-0.036775354,-0.031736184,-0.00090424286,0.00046052953,-0.0002578646,0.0059044007,-0.0252967,0.0052740793,0.022553967,0.00031980802,0.0032274905,0.005365688,1.8156721e-05,487.9847,0.1000061,0.010000001,-487.9847,0.11968788,0.112624176,0.07982388,0.04914313,inf,inf,inf,inf,inf,160,1,1,1,1,3,3,2,1,6,1,1,1,0,3,0,0
1771685726908000,1771685726908000,1771685726908000,1771684928340000,47.3977419,8.5455939,0.027923096,0.040841058,-0.04232788,0.004007112,-0.0025302004,-487.9847,-0.0040579126,-0.010016148,-0.03629897,-0.031142244,-0.00090424286,0.00046052953,-0.0002578646,-0.0052556004,-0.0057756086,0.048346348,0.022549758,0.00031991483,0.0032226383,0.005365688,1.8200875e-05,487.9847,0.1000061,0.010000001,-487.9847,0.12008859,0.1128732,0.080122955,0.04922616,inf,inf,inf,inf,inf,160,1,1,1,1,3,3,2,1,6,1,1,1,0,3,0,0
1771685726916000,1771685726916000,1771685726916000,1771684928340000,47.3977419,8.5455939,0.027904747,0.040856976,-0.042419434,0.004007112,-0.0025302004,-487.9847,-0.0040083746,-0.010220259,-0.03621712,-0.030947313,-0.00090424286,0.00046052953,-0.0002578646,0.003910134,-0.034418985,-0.00068079674,0.022495562,0.0003200217,0.0031677722,0.005365688,1.8245068e-05,487.9847,0.1000061,0.010000001,-487.9847,0.12049205,0.11312305,0.08042192,0.049309064,inf,inf,inf,inf,inf,160,1,1,1,1,3,3,2,1,6,1,1,1,0,3,0,0
1771685726924000,1771685726924000,1771685726924000,1771684928340000,47.3977419,8.5455939,0.027887471,0.04087031,-0.04248047,0.004007112,-0.0025302004,-487.9847,-0.0037030804,-0.010121605,-0.036429893,-0.03104742,-0.00090424286,0.00046052953,-0.0002578646,0.0359374,0.0036851778,-0.03735162,0.022454128,0.0003201286,0.003125656,0.005365688,1.8289296e-05,487.9847,0.1000061,0.010000001,-487.9847,0.12089825,0.113314815,0.08072088,0.049381472,inf,inf,inf,inf,inf,160,1,1,1,1,3,3,2,1,6,1,1,1,0,3,0,0
1771685726932000,1771685726932000,1771685726932000,1771684928340000,47.3977419,8.5455939,0.027871616,0.04088203,-0.042541504,0.004007112,-0.0025302004,-487.9847,-0.0037308282,-0.009973019,-0.036361847,-0.030871214,-0.00090424286,0.00046052953,-0.0002578646,-0.0056387815,0.010180241,-0.0019720753,0.022380693,0.00032023553,0.0030515133,0.005365688,1.8333561e-05,487.9847,0.1000061,0.010000001,-487.9847,0.1213072,0.11356622,0.081020325,0.049464136,inf,inf,inf,inf,inf,160,1,1,1,1,3,3,2,1,6,1,1,1,0,3,0,0
1771685726940000,1771685726940000,1771685726940000,1771684928340000,47.3977419,8.5455939,0.027855093,0.040892135,-0.042633057,0.004007112,-0.0025302004,-487.9847,-0.0038154186,-0.010095624,-0.03612275,-0.030528402,-0.00090424286,0.00046052953,-0.0002578646,-0.012693061,-0.023473071,0.019678378,0.02232755,0.00032034246,0.0029976494,0.005365688,1.8377865e-05,487.9847,0.1000061,0.010000001,-487.9847,0.121718906,0.11381845,0.08131987,0.049546674,inf,inf,inf,inf,inf,160,1,1,1,1,3,3,2,1,6,1,1,1,0,3,0,0
1771685726948000,1771685726948000,1771685726948000,1771684928340000,47.3977419,8.5455939,0.027839258,0.040901758,-0.04272461,0.004007112,-0.0025302004,-487.9847,-0.003543297,-0.010128245,-0.036183592,-0.030489841,-0.00090424286,0.00046052953,-0.0002578646,0.031900294,-0.012661561,-0.017552169,0.022311777,0.00031956955,0.0029811296,0.005365688,1.841129e-05,487.9847,0.1000061,0.010000001,-487.9847,0.1221309,0.11407152,0.08161182,0.049629085,inf,inf,inf,inf,inf,160,1,1,1,1,3,3,2,1,6,1,1,1,0,3,0,0
1771685726956000,1771685726956000,1771685726956000,1771684928340000,47.3977419,8.5455939,0.0278233,0.040941115,-0.042785645,0.004007112,-0.0025302004,-487.9847,-0.0033327045,-0.010166372,-0.03640577,-0.030595977,-0.00090424286,0.00046052953,-0.0002578646,0.024054436,-0.01547716,-0.039074566,0.022346197,0.0003195086,0.00302007,0.005365688,1.817365e-05,487.9847,0.1000061,0.010000001,-487.9847,0.11988339,0.11274723,0.079962194,0.04918357,inf,inf,inf,inf,inf,160,1,1,1,1,3,3,2,1,6,1,1,1,0,3,0,0
1771685726964000,1771685726964000,1771685726964000,1771684928340000,47.3977419,8.5455939,0.02780798,0.04097656,-0.04284668,0.004007112,-0.0025302004,-487.9847,-0.00337615,-0.01027596,-0.036241725,-0.030320736,-0.00090424286,0.00046052953,-0.0002578646,-0.0076418407,-0.024115227,0.00949623,0.022418749,0.00031961524,0.0030962038,0.005365688,1.8217812e-05,487.9847,0.1000061,0.010000001,-487.9847,0.12028541,0.11299666,0.08026136,0.04926654,inf,inf,inf,inf,inf,160,1,1,1,1,3,3,2,1,6,1,1,1,0,3,0,0
1771685726972000,1771685726972000,1771685726972000,1771684928340000,47.3977419,8.5455939,0.02779268,0.04100823,-0.042907715,0.004007112,-0.0025302004,-487.9847,-0.0032002232,-0.010407327,-0.03606119,-0.030033719,-0.00090424286,0.00046052953,-0.0002578646,0.01983132,-0.026545309,0.011843163,0.022470998,0.00031972193,0.0031520217,0.005365688,1.8262012e-05,487.9847,0.1000061,0.010000001,-487.9847,0.12069016,0.11324692,0.08056086,0.049349383,inf,inf,inf,inf,inf,160,1,1,1,1,3,3,2,1,6,1,1,1,0,3,0,0
1771685726980000,1771685726980000,1771685726980000,1771684928340000,47.3977419,8.5455939,0.02777958,0.041036412,-0.04296875,0.004007112,-0.0025302004,-487.9847,-0.0029795629,-0.010445045,-0.03600693,-0.02987458,-0.00090424286,0.00046052953,-0.0002578646,0.025479766,-0.014550984,-0.003761146,0.022462545,0.00031982866,0.0031471509,0.005365688,1.8306248e-05,487.9847,0.1000061,0.010000001,-487.9847,0.121097654,0.1134389,0.0808604,0.04942168,inf,inf,inf,inf,inf,160,1,1,1,1,3,3,2,1,6,1,1,1,0,3,0,0
1771685726988000,1771685726988000,1771685726988000,1771684928340000,47.3977419,8.5455939,0.027766954,0.041062187,-0.043060303,0.004007112,-0.0025302004,-487.9847,-0.0030347698,-0.010325347,-0.036040917,-0.029808303,-0.00090424286,0.00046052953,-0.0002578646,-0.008946177,0.005404618,-0.014519318,0.02242878,0.0003199354,0.0031169835,0.005365688,1.8350522e-05,487.9847,0.1000061,0.010000001,-487.9847,0.12150791,0.113690704,0.08116001,0.04950428,inf,inf,inf,inf,inf,160,1,1,1,1,3,3,2,1,6,1,1,1,0,3,0,0
1771685726996000,1771685726996000,1771685726996000,1771684928340000,47.3977419,8.5455939,0.02775318,0.041086085,-0.043121338,0.004007112,-0.0025302004,-487.9847,-0.0032169777,-0.010238333,-0.03642627,-0.030097926,-0.00090424286,0.00046052953,-0.0002578646,-0.024767708,0.0015909426,-0.058175527,0.02236618,0.00032004222,0.003058001,0.005365688,1.8394834e-05,487.9847,0.1000061,0.010000001,-487.9847,0.12192093,0.113943346,0.08145986,0.049586758,inf,inf,inf,inf,inf,160,1,1,1,1,3,3,2,1,6,1,1,1,0,3,0,0
1771685727004000,1771685727004000,1771685727004000,1771684928340000,47.3977419,8.5455939,0.027747149,0.041131727,-0.043182373,0.004007112,-0.0025302004,-487.9847,-0.0029694934,-0.010068299,-0.036193747,-0.029752338,-0.00090424286,0.00046052953,-0.0002578646,0.028298963,0.010326598,0.017725395,0.02230663,0.00032013,0.003002088,0.005365688,1.8161187e-05,487.9847,0.1000061,0.010000001,-487.9847,0.11968861,0.11262417,0.07982406,0.04914313,inf,inf,inf,inf,inf,160,1,1,1,1,3,3,2,1,6,1,1,1,0,3,0,0
1771685727012000,1771685727012000,1771685727012000,1771684928340000,47.3977419,8.5455939,0.027743176,0.041175324,-0.043273926,0.004007112,-0.0025302004,-487.9847,-0.0026968229,-0.010108825,-0.03617373,-0.02962435,-0.00090424286,0.00046052953,-0.0002578646,0.031547304,-0.015743742,-0.00854209,0.022345198,0.00031935796,0.0030441596,0.005365688,1.8194689e-05,487.9847,0.1000061,0.010000001,-487.9847,0.120087124,0.11287318,0.08011432,0.049226165,inf,inf,inf,inf,inf,160,1,1,1,1,3,3,2,1,6,1,1,1,0,3,0,0
1771685727020000,1771685727020000,1771685727020000,1771684928340000,47.3977419,8.5455939,0.027740564,0.04121449,-0.04333496,0.004007112,-0.0025302004,-487.9847,-0.0025773179,-0.010322282,-0.036275025,-0.029622642,-0.00090424286,0.00046052953,-0.0002578646,0.012461197,-0.03706193,-0.023418104,0.022364974,0.00031946454,0.0030679158,0.005365688,1.8238869e-05,487.9847,0.1000061,0.010000001,-487.9847,0.12049054,0.113123044,0.080413125,0.049309067,inf,inf,inf,inf,inf,160,1,1,1,1,3,3,2,1,6,1,1,1,0,3,0,0
1771685727028000,1771685727028000,1771685727028000,1771684928340000,47.3977419,8.5455939,0.027737912,0.04125085,-0.043395996,0.004007112,-0.0025302004,-487.9847,-0.0026049658,-0.010056715,-0.036105677,-0.029351136,-0.00090424286,0.00046052953,-0.0002578646,-0.0058686496,0.023102386,0.010568182,0.022302775,0.00031957115,0.0030097174,0.005365688,1.8283088e-05,487.9847,0.1000061,0.010000001,-487.9847,0.1208967,0.11331481,0.08071293,0.049381476,inf,inf,inf,inf,inf,160,1,1,1,1,3,3,2,1,6,1,1,1,0,3,0,0
1771685727036000,1771685727036000,1771685727036000,1771684928340000,47.3977419,8.5455939,0.027736349,0.041284975,-0.04345703,0.004007112,-0.0025302004,-487.9847,-0.0022644321,-0.010305043,-0.036397472,-0.029545581,-0.00090424286,0.00046052953,-0.0002578646,0.04021896,-0.040850304,-0.046799887,0.022293886,0.00031967778,0.0030048355,0.005365688,1.8327342e-05,487.9847,0.1000061,0.010000001,-487.9847,0.121305615,0.11356621,0.081013545,0.04946414,inf,inf,inf,inf,inf,160,1,1,1,1,3,3,2,1,6,1,1,1,0,3,0,0
1771685727044000,1771685727044000,1771685727044000,1771684928340000,47.3977419,8.5455939,0.027736565,0.041314162,-0.043548584,0.004007112,-0.0025302004,-487.9847,-0.0021589221,-0.010398177,-0.036509458,-0.029564884,-0.00090424286,0.00046052953,-0.0002578646,0.010898691,-0.02117441,-0.02405606,0.022344554,0.00031978448,0.003059519,0.005365688,1.8371637e-05,487.9847,0.1000061,0.010000001,-487.9847,0.12171728,0.113818444,0.081313156,0.049546678,inf,inf,inf,inf,inf,160,1,1,1,1,3,3,2,1,6,1,1,1,0,3,0,0
1771685727052000,1771685727052000,1771685727052000,1771684928340000,47.3977419,8.5455939,0.027736522,0.041341767,-0.043640137,0.004007112,-0.0025302004,-487.9847,-0.0022252232,-0.0100656105,-0.03655735,-0.029524669,-0.00090424286,0.00046052953,-0.0002578646,-0.010516926,0.03230753,-0.015784519,0.022304906,0.00031989123,0.0030238829,0.005365688,1.8415965e-05,487.9847,0.1000061,0.010000001,-487.9847,0.12213171,0.11407151,0.08161356,0.04962909,inf,inf,inf,inf,inf,160,1,1,1,1,3,3,2,1,6,1,1,1,0,3,0,0
1771685727060000,1771685727060000,1771685727060000,1771684928340000,47.3977419,8.5455939,0.027743576,0.041391835,-0.043701172,0.004007112,-0.0025302004,-487.9847,-0.0021347313,-0.009850843,-0.03672009,-0.029586082,-0.00090424286,0.00046052953,-0.0002578646,0.008496871,0.015987782,-0.03133388,0.022302583,0.00031997857,0.0030255741,0.005365688,1.8180304e-05,487.9847,0.1000061,0.010000001,-487.9847,0.1198845,0.11274722,0.07996439,0.049183574,inf,inf,inf,inf,inf,160,1,1,1,1,3,3,2,1,6,1,1,1,0,3,0,0
1771685727068000,1771685727068000,1771685727068000,1771684928340000,47.3977419,8.5455939,0.027751872,0.041439503,-0.043792725,0.004007112,-0.0025302004,-487.9847,-0.0019001483,-0.009893457,-0.036444124,-0.029213907,-0.00090424286,0.00046052953,-0.0002578646,0.026582051,-0.01588225,0.023791565,0.022345904,0.00032008538,0.0030727922,0.005365688,1.8224475e-05,487.9847,0.1000061,0.010000001,-487.9847,0.12028653,0.11299665,0.08026371,0.049266543,inf,inf,inf,inf,inf,160,1,1,1,1,3,3,2,1,6,1,1,1,0,3,0,0
1771685727076000,1771685727076000,1771685727076000,1771684928340000,47.3977419,8.5455939,0.027759798,0.04148317,-0.04385376,0.004007112,-0.0025302004,-487.9847,-0.0020692442,-0.01003003,-0.03663394,-0.029312441,-0.00090424286,0.00046052953,-0.0002578646,-0.02380731,-0.027331486,-0.034151595,0.022218673,0.00032019222,0.0029494609,0.005365688,1.8268682e-05,487.9847,0.1000061,0.010000001,-487.9847,0.12069131,0.11324692,0.08056418,0.049349386,inf,inf,inf,inf,inf,160,1,1,1,1,3,3,2,1,6,1,1,1,0,3,0,0
1771685727084000,1771685727084000,1771685727084000,1771684928340000,47.3977419,8.5455939,0.027768372,0.04152297,-0.043945312,0.004007112,-0.0025302004,-487.9847,-0.001966553,-0.010165545,-0.036595713,-0.029184666,-0.00090424286,0.00046052953,-0.0002578646,0.010016709,-0.026941547,-0.005483161,0.022167245,0.00031942007,0.0029019355,0.005365688,1.8302151e-05,487.9847,0.1000061,0.010000001,-487.9847,0.121096484,0.1134389,0.08085472,0.049421683,inf,inf,inf,inf,inf,160,1,1,1,1,3,3,2,1,6,1,1,1,0,3,0,0
1771685727092000,1771685727092000,1771685727092000,1771684928340000,47.3977419,8.5455939,0.027777342,0.041559253,-0.044036865,0.004007112,-0.0025302004,-487.9847,-0.0017838695,-0.010116688,-0.03658897,-0.02909311,-0.00090424286,0.00046052953,-0.0002578646,0.020086804,-0.0036151865,-0.00915164,0.02219361,0.00031952665,0.002932358,0.005365688,1.8346424e-05,487.9847,0.1000061,0.010000001,-487.9847,0.12150672,0.113690704,0.08115432,0.049504288,inf,inf,inf,inf,inf,160,1,1,1,1,3,3,2,1,6,1,1,1,0,3,0,0
1771685727100000,1771685727100000,1771685727100000,1771684928340000,47.3977419,8.5455939,0.02778799,0.041593425,-0.0440979,0.004007112,-0.0025302004,-487.9847,-0.0015617517,-0.01000459,-0.0367665,-0.029190421,-0.00090424286,0.00046052953,-0.0002578646,0.025087075,0.0045627155,-0.0319262,0.022212492,0.00031963328,0.002955291,0.005365688,1.8390734e-05,487.9847,0.1000061,0.010000001,-487.9847,0.12191971,0.11394334,0.08145514,0.04958676,inf,inf,inf,inf,inf,160,1,1,1,1,3,3,2,1,6,1,1,1,0,3,0,0
1771685727108000,1771685727108000,1771685727108000,1771684928340000,47.3977419,8.5455939,0.02779432,0.041647334,-0.044189453,0.004007112,-0.0025302004,-487.9847,-0.0017611426,-0.010103466,-0.037060816,-0.029384218,-0.00090424286,0.00046052953,-0.0002578646,-0.027505923,-0.023389945,-0.047922596,0.022226987,0.00031972025,0.0029738504,0.005365688,1.815723e-05,487.9847,0.1000061,0.010000001,-487.9847,0.11968752,0.11262416,0.07981986,0.04914314,inf,inf,inf,inf,inf,160,1,1,1,1,3,3,2,1,6,1,1,1,0,3,0,0
1771685727116000,1771685727116000,1771685727116000,1771684928340000,47.3977419,8.5455939,0.02779878,0.041697375,-0.04425049,0.004007112,-0.0025302004,-487.9847,-0.0019813438,-0.010119479,-0.037065543,-0.029293628,-0.00090424286,0.00046052953,-0.0002578646,-0.03004075,-0.012718082,-0.011431052,0.022139518,0.00031982694,0.0028901803,0.005365688,1.8201383e-05,487.9847,0.1000061,0.010000001,-487.9847,0.12008823,0.11287318,0.08011878,0.049226172,inf,inf,inf,inf,inf,160,1,1,1,1,3,3,2,1,6,1,1,1,0,3,0,0
1771685727124000,1771685727124000,1771685727124000,1771684928340000,47.3977419,8.5455939,0.02780114,0.04174461,-0.04434204,0.004007112,-0.0025302004,-487.9847,-0.002078529,-0.010014667,-0.037192803,-0.029330648,-0.00090424286,0.00046052953,-0.0002578646,-0.014601256,0.0026890764,-0.02646353,0.022107538,0.0003199337,0.002861898,0.005365688,1.8245571e-05,487.9847,0.1000061,0.010000001,-487.9847,0.12049167,0.11312304,0.080418035,0.049309075,inf,inf,inf,inf,inf,160,1,1,1,1,3,3,2,1,6,1,1,1,0,3,0,0
1771685727132000,1771685727132000,1771685727132000,1771684928340000,47.3977419,8.5455939,0.027804736,0.041788425,-0.044433594,0.004007112,-0.0025302004,-487.9847,-0.0017733185,-0.010200219,-0.037354924,-0.029404454,-0.00090424286,0.00046052953,-0.0002578646,0.035760004,-0.0333155,-0.030646564,0.022125524,0.00032004048,0.002883471,0.005365688,1.8289798e-05,487.9847,0.1000061,0.010000001,-487.9847,0.12089785,0.11331481,0.080717914,0.049381483,inf,inf,inf,inf,inf,160,1,1,1,1,3,3,2,1,6,1,1,1,0,3,0,0
1771685727140000,1771685727140000,1771685727140000,1771684928340000,47.3977419,8.5455939,0.027810073,0.041828357,-0.04449463,0.004007112,-0.0025302004,-487.9847,-0.0014949554,-0.010188687,-0.03737603,-0.029342128,-0.00090424286,0.00046052953,-0.0002578646,0.032472707,-0.008400805,-0.012748874,0.022091703,0.0003201473,0.0028531342,0.005365688,1.8334063e-05,487.9847,0.1000061,0.010000001,-487.9847,0.12130679,0.113566205,0.081018165,0.049464148,inf,inf,inf,inf,inf,160,1,1,1,1,3,3,2,1,6,1,1,1,0,3,0,0
1771685727148000,1771685727148000,1771685727148000,1771684928340000,47.3977419,8.5455939,0.027817575,0.041866373,-0.04458618,0.004007112,-0.0025302004,-487.9847,-0.0010947202,-0.009993916,-0.037490956,-0.02937828,-0.00090424286,0.00046052953,-0.0002578646,0.047860775,0.01468834,-0.024212057,0.022055639,0.00031937571,0.0028204503,0.005365688,1.8367507e-05,487.9847,0.1000061,0.010000001,-487.9847,0.12171607,0.11381844,0.081310086,0.049546685,inf,inf,inf,inf,inf,160,1,1,1,1,3,3,2,1,6,1,1,1,0,3,0,0
1771685727156000,1771685727156000,1771685727156000,1771684928340000,47.3977419,8.5455939,0.027827019,0.04190351,-0.044708252,0.004007112,-0.0025302004,-487.9847,-0.0007144395,-0.009895646,-0.03763639,-0.029449422,-0.00090424286,0.00046052953,-0.0002578646,0.045625497,0.0028187667,-0.027769243,0.02209262,0.00031933474,0.0028614155,0.005365688,1.8409719e-05,487.9847,0.1000061,0.010000001,-487.9847,0.12213006,0.1140715,0.08160853,0.049629092,inf,inf,inf,inf,inf,160,1,1,1,1,3,3,2,1,6,1,1,1,0,3,0,0
1771685727164000,1771685727164000,1771685727164000,1771684928340000,47.3977419,8.5455939,0.027835282,0.041952536,-0.044769287,0.004007112,-0.0025302004,-487.9847,-0.00034987603,-0.01004271,-0.03737248,-0.029090866,-0.00090424286,0.00046052953,-0.0002578646,0.043784868,-0.029050928,0.022001097,0.022082482,0.00031942115,0.002854505,0.005365688,1.8174222e-05,487.9847,0.1000061,0.010000001,-487.9847,0.11988301,0.11274722,0.07996088,0.04918358,inf,inf,inf,inf,inf,160,1,1,1,1,3,3,2,1,6,1,1,1,0,3,0,0
1771685727172000,1771685727172000,1771685727172000,1771684928340000,47.3977419,8.5455939,0.027845317,0.041996956,-0.04486084,0.004007112,-0.0025302004,-487.9847,-0.00014638968,-0.010307856,-0.03700493,-0.028633827,-0.00090424286,0.00046052953,-0.0002578646,0.023691572,-0.043510832,0.0352459,0.022093732,0.00031952772,0.0028687823,0.005365688,1.8218383e-05,487.9847,0.1000061,0.010000001,-487.9847,0.12028501,0.112996645,0.08026066,0.04926655,inf,inf,inf,inf,inf,160,1,1,1,1,3,3,2,1,6,1,1,1,0,3,0,0
1771685727180000,1771685727180000,1771685727180000,1771684928340000,47.3977419,8.5455939,0.027857294,0.04203584,-0.044921875,0.004007112,-0.0025302004,-487.9847,7.1757575e-05,-0.01053627,-0.03707071,-0.028615113,-0.00090424286,0.00046052953,-0.0002578646,0.025566481,-0.03862786,-0.018639488,0.02211056,0.0003196343,0.0028885133,0.005365688,1.826258e-05,487.9847,0.1000061,0.010000001,-487.9847,0.120689765,0.11324691,0.08055995,0.04934939,inf,inf,inf,inf,inf,160,1,1,1,1,3,3,2,1,6,1,1,1,0,3,0,0
1771685727188000,1771685727188000,1771685727188000,1771684928340000,47.3977419,8.5455939,0.027869646,0.04207087,-0.045013428,0.004007112,-0.0025302004,-487.9847,-8.200443e-06,-0.010631848,-0.037285745,-0.028746434,-0.00090424286,0.00046052953,-0.0002578646,-0.011653401,-0.02174671,-0.037173737,0.022014568,0.0003197409,0.0027953177,0.005365688,1.8306815e-05,487.9847,0.1000061,0.010000001,-487.9847,0.12109726,0.11343889,0.08086087,0.04942169,inf,inf,inf,inf,inf,160,1,1,1,1,3,3,2,1,6,1,1,1,0,3,0,0
1771685727196000,1771685727196000,1771685727196000,1771684928340000,47.3977419,8.5455939,0.027880868,0.042101115,-0.04510498,0.004007112,-0.0025302004,-487.9847,-0.00019164599,-0.010936381,-0.037387308,-0.02876902,-0.00090424286,0.00046052953,-0.0002578646,-0.024550045,-0.04758609,-0.022719147,0.021959154,0.00031984755,0.0027425769,0.005365688,1.8351086e-05,487.9847,0.1000061,0.010000001,-487.9847,0.12150752,0.1136907,0.08116151,0.04950429,inf,inf,inf,inf,inf,160,1,1,1,1,3,3,2,1,6,1,1,1,0,3,0,0
1771685727204000,1771685727204000,1771685727204000,1771684928340000,47.3977419,8.5455939,0.027890367,0.042126454,-0.045196533,0.004007112,-0.0025302004,-487.9847,-0.0003343002,-0.011130937,-0.037376393,-0.028683685,-0.00090424286,0.00046052953,-0.0002578646,-0.019406324,-0.03356496,-0.008396803,0.022003911,0.00031995424,0.0027898955,0.005365688,1.8395396e-05,487.9847,0.1000061,0.010000001,-487.9847,0.12192053,0.11394334,0.081462175,0.049586765,inf,inf,inf,inf,inf,160,1,1,1,1,3,3,2,1,6,1,1,1,0,3,0,0
1771685727212000,1771685727212000,1771685727212000,1771684928340000,47.3977419,8.5455939,0.027904902,0.042163257,-0.04525757,0.004007112,-0.0025302004,-487.9847,-0.00044747017,-0.0111096455,-0.03683607,-0.028043557,-0.00090424286,0.00046052953,-0.0002578646,-0.016085321,-0.0077533536,0.056171786,0.021953883,0.00032004132,0.0027423105,0.005365688,1.816171e-05,487.9847,0.1000061,0.010000001,-487.9847,0.11968822,0.11262416,0.07982633,0.049143143,inf,inf,inf,inf,inf,160,1,1,1,1,3,3,2,1,6,1,1,1,0,3,0,0
1771685727220000,1771685727220000,1771685727220000,1771684928340000,47.3977419,8.5455939,0.027916038,0.042197566,-0.045318604,0.004007112,-0.0025302004,-487.9847,-0.00074751605,-0.01114745,-0.03686749,-0.027980559,-0.00090424286,0.00046052953,-0.0002578646,-0.039144672,-0.015025967,-0.014993827,0.021883834,0.00031926975,0.002674488,0.005365688,1.8195205e-05,487.9847,0.1000061,0.010000001,-487.9847,0.12008674,0.112873174,0.08011603,0.049226176,inf,inf,inf,inf,inf,160,1,1,1,1,3,3,2,1,6,1,1,1,0,3,0,0
1771685727228000,1771685727228000,1771685727228000,1771684928340000,47.3977419,8.5455939,0.027925702,0.042230602,-0.045410156,0.004007112,-0.0025302004,-487.9847,-0.0006754583,-0.010672698,-0.037003852,-0.028027723,-0.00090424286,0.00046052953,-0.0002578646,0.0074050655,0.049332164,-0.027818603,0.021822939,0.0003193762,0.0026172767,0.005365688,1.8239385e-05,487.9847,0.1000061,0.010000001,-487.9847,0.120490156,0.11312304,0.08041603,0.04930908,inf,inf,inf,inf,inf,160,1,1,1,1,3,3,2,1,6,1,1,1,0,3,0,0
1771685727236000,1771685727236000,1771685727236000,1771684928340000,47.3977419,8.5455939,0.02793727,0.04226344,-0.04547119,0.004007112,-0.0025302004,-487.9847,-0.0003615616,-0.010485195,-0.036887344,-0.02782303,-0.00090424286,0.00046052953,-0.0002578646,0.037675958,0.01371166,0.0039413567,0.02183784,0.00031948264,0.0026357486,0.005365688,1.8283596e-05,487.9847,0.1000061,0.010000001,-487.9847,0.120896325,0.1133148,0.08071584,0.049381487,inf,inf,inf,inf,inf,160,1,1,1,1,3,3,2,1,6,1,1,1,0,3,0,0
1771685727244000,1771685727244000,1771685727244000,1771684928340000,47.3977419,8.5455939,0.027950361,0.04229419,-0.045562744,0.004007112,-0.0025302004,-487.9847,-0.00019814014,-0.010546863,-0.036872678,-0.02772518,-0.00090424286,0.00046052953,-0.0002578646,0.018912043,-0.017158184,-0.008507631,0.021818744,0.00031958916,0.002620108,0.005365688,1.832785e-05,487.9847,0.1000061,0.010000001,-487.9847,0.12130524,0.1135662,0.081016056,0.04946415,inf,inf,inf,inf,inf,160,1,1,1,1,3,3,2,1,6,1,1,1,0,3,0,0
1771685727252000,1771685727252000,1771685727252000,1771684928340000,47.3977419,8.5455939,0.027964024,0.04232059,-0.04562378,0.004007112,-0.0025302004,-487.9847,-0.00019795103,-0.010770175,-0.036969595,-0.02774373,-0.00090424286,0.00046052953,-0.0002578646,-0.0014484803,-0.037097495,-0.022182705,0.021810459,0.00031969568,0.0026151608,0.005365688,1.8372135e-05,487.9847,0.1000061,0.010000001,-487.9847,0.12171692,0.11381844,0.08131704,0.04954669,inf,inf,inf,inf,inf,160,1,1,1,1,3,3,2,1,6,1,1,1,0,3,0,0
1771685727260000,1771685727260000,1771685727260000,1771684928340000,47.3977419,8.5455939,0.027976323,0.042341948,-0.045715332,0.004007112,-0.0025302004,-487.9847,-0.00045756632,-0.011098249,-0.03739826,-0.02809862,-0.00090424286,0.00046052953,-0.0002578646,-0.033884753,-0.049935665,-0.06338628,0.021809712,0.00031980244,0.0026176362,0.005365688,1.8416471e-05,487.9847,0.1000061,0.010000001,-487.9847,0.12213136,0.1140715,0.08161845,0.0496291,inf,inf,inf,inf,inf,160,1,1,1,1,3,3,2,1,6,1,1,1,0,3,0,0
1771685727268000,1771685727268000,1771685727268000,1771684928340000,47.3977419,8.5455939,0.027992206,0.042373363,-0.045776367,0.004007112,-0.0025302004,-487.9847,-0.00059618376,-0.011481252,-0.03751114,-0.02810832,-0.00090424286,0.00046052953,-0.0002578646,-0.019121593,-0.058038868,-0.025684943,0.021770738,0.00031988914,0.0025817486,0.005365688,1.8180714e-05,487.9847,0.1000061,0.010000001,-487.9847,0.11988411,0.112747215,0.07997012,0.049183585,inf,inf,inf,inf,inf,160,1,1,1,1,3,3,2,1,6,1,1,1,0,3,0,0
1771685727276000,1771685727276000,1771685727276000,1771684928340000,47.3977419,8.5455939,0.028007781,0.04239865,-0.045837402,0.004007112,-0.0025302004,-487.9847,-0.0004745139,-0.011686199,-0.03784776,-0.028347284,-0.00090424286,0.00046052953,-0.0002578646,0.013463102,-0.035493605,-0.05334336,0.021740515,0.00031999583,0.0025544013,0.005365688,1.822488e-05,487.9847,0.1000061,0.010000001,-487.9847,0.12028616,0.112996645,0.080269925,0.049266554,inf,inf,inf,inf,inf,160,1,1,1,1,3,3,2,1,6,1,1,1,0,3,0,0
1771685727284000,1771685727284000,1771685727284000,1771684928340000,47.3977419,8.5455939,0.028023757,0.0424224,-0.045928955,0.004007112,-0.0025302004,-487.9847,-0.00047228413,-0.011313196,-0.037364468,-0.027771637,-0.00090424286,0.00046052953,-0.0002578646,-0.0014152683,0.03702209,0.04944624,0.021691242,0.00031922493,0.002507904,0.005365688,1.8258364e-05,487.9847,0.1000061,0.010000001,-487.9847,0.12068866,0.11324691,0.08056105,0.049349397,inf,inf,inf,inf,inf,160,1,1,1,1,3,3,2,1,6,1,1,1,0,3,0,0
1771685727292000,1771685727292000,1771685727292000,1771684928340000,47.3977419,8.5455939,0.028038325,0.04244461,-0.04598999,0.004007112,-0.0025302004,-487.9847,-0.00063496165,-0.011374739,-0.03699079,-0.027305692,-0.00090424286,0.00046052953,-0.0002578646,-0.021979818,-0.017025365,0.035864297,0.02165938,0.00031933136,0.0024787164,0.005365688,1.8302597e-05,487.9847,0.1000061,0.010000001,-487.9847,0.12109616,0.11343889,0.080861226,0.049421694,inf,inf,inf,inf,inf,160,1,1,1,1,3,3,2,1,6,1,1,1,0,3,0,0
1771685727300000,1771685727300000,1771685727300000,1771684928340000,47.3977419,8.5455939,0.028052345,0.042462643,-0.046051025,0.004007112,-0.0025302004,-487.9847,-0.0006537623,-0.011467339,-0.03697875,-0.02720648,-0.00090424286,0.00046052953,-0.0002578646,-0.0039543672,-0.020639384,-0.009051523,0.021705331,0.00031943782,0.002527242,0.005365688,1.8346867e-05,487.9847,0.1000061,0.010000001,-487.9847,0.1215064,0.11369069,0.081161976,0.0495043,inf,inf,inf,inf,inf,160,1,1,1,1,3,3,2,1,6,1,1,1,0,3,0,0
