timestamp,pub_timestamp,timestamp_sample,ref_timestamp,ref_lat,ref_lon,x,y,z,delta_xy[0],delta_xy[1],delta_z,vx,vy,vz,z_deriv,delta_vxy[0],delta_vxy[1],delta_vz,ax,ay,az,heading,heading_var,unaided_heading,delta_heading,tilt_var,ref_alt,dist_bottom,dist_bottom_var,delta_dist_bottom,eph,epv,evh,evv,vxy_max,vz_max,hagl_min,hagl_max_z,hagl_max_xy,publisher_id,xy_valid,z_valid,v_xy_valid,v_z_valid,xy_reset_counter,z_reset_counter,vxy_reset_counter,vz_reset_counter,heading_reset_counter,heading_good_for_control,xy_global,z_global,dist_bottom_valid,dist_bottom_reset_counter,dist_bottom_sensor_bitfield,dead_reckoning
1771685523332000,1771685523332000,1771685523332000,1771684928340000,47.3977419,8.5455939,0.019948939,-0.025955362,0.02545166,0.004007112,-0.0025302004,-487.9847,0.011659601,-0.013894071,-0.03429129,-0.08296078,-0.00090424286,0.00046052953,-0.0002578646,-0.0332161,0.006323368,-0.02916064,0.018831836,0.00032143982,0.0001720502,0.016992038,1.8562958e-05,487.9847,0.1000061,0.010000001,-487.9847,0.12029376,0.11299711,0.08030331,0.049267247,inf,inf,inf,inf,inf,160,1,1,1,1,3,3,2,1,5,1,1,1,0,3,0,0
1771685523340000,1771685523340000,1771685523340000,1771684928340000,47.3977419,8.5455939,0.020001836,-0.025980657,0.025115967,0.004007112,-0.0025302004,-487.9847,0.011360726,-0.013871942,-0.03465513,-0.08304325,-0.00090424286,0.00046052953,-0.0002578646,-0.03227684,-0.00567336,-0.045314427,0.018852515,0.00032155792,0.00019015511,0.016992038,1.860729e-05,487.9847,0.1000061,0.010000001,-487.9847,0.12069874,0.11324738,0.08060339,0.04935009,inf,inf,inf,inf,inf,160,1,1,1,1,3,3,2,1,5,1,1,1,0,3,0,0
1771685523348000,1771685523348000,1771685523348000,1771684928340000,47.3977419,8.5455939,0.020055437,-0.026009066,0.024810791,0.004007112,-0.0025302004,-487.9847,0.011489293,-0.014179954,-0.03424544,-0.08234324,-0.00090424286,0.00046052953,-0.0002578646,0.021018572,-0.04670463,0.051100735,0.018905282,0.00032167608,0.00024021929,0.016992038,1.8651663e-05,487.9847,0.1000061,0.010000001,-487.9847,0.121106476,0.11343936,0.08090343,0.049422394,inf,inf,inf,inf,inf,160,1,1,1,1,3,3,2,1,5,1,1,1,0,3,0,0
1771685523356000,1771685523356000,1771685523356000,1771684928340000,47.3977419,8.5455939,0.020105237,-0.026038935,0.024505615,0.004007112,-0.0025302004,-487.9847,0.011123897,-0.013974035,-0.03376354,-0.08156751,-0.00090424286,0.00046052953,-0.0002578646,-0.04016203,0.017616497,0.060013957,0.018925186,0.0003209346,0.00025728857,0.016992038,1.8685023e-05,487.9847,0.1000061,0.010000001,-487.9847,0.121514596,0.113691166,0.08119438,0.049505,inf,inf,inf,inf,inf,160,1,1,1,1,3,3,2,1,5,1,1,1,0,3,0,0
1771685523364000,1771685523364000,1771685523364000,1771684928340000,47.3977419,8.5455939,0.020153537,-0.026069565,0.024230957,0.004007112,-0.0025302004,-487.9847,0.011037298,-0.0140247345,-0.033596527,-0.081103355,-0.00090424286,0.00046052953,-0.0002578646,-0.005456623,-0.014236452,0.020543111,0.018924525,0.00032105247,0.00025512977,0.016992038,1.8729455e-05,487.9847,0.1000061,0.010000001,-487.9847,0.121927805,0.113943815,0.0814949,0.04958748,inf,inf,inf,inf,inf,160,1,1,1,1,3,3,2,1,5,1,1,1,0,3,0,0
1771685523372000,1771685523372000,1771685523372000,1771684928340000,47.3977419,8.5455939,0.020187886,-0.026097564,0.023895264,0.004007112,-0.0025302004,-487.9847,0.011175742,-0.013759974,-0.033821233,-0.08106345,-0.00090424286,0.00046052953,-0.0002578646,0.024083126,0.024321977,-0.027951317,0.018906929,0.00032114712,0.00023591286,0.016992038,1.849504e-05,487.9847,0.1000061,0.010000001,-487.9847,0.11969457,0.112624615,0.07985584,0.049143832,inf,inf,inf,inf,inf,160,1,1,1,1,3,3,2,1,5,1,1,1,0,3,0,0
1771685523380000,1771685523380000,1771685523380000,1771684928340000,47.3977419,8.5455939,0.020223944,-0.026124338,0.023590088,0.004007112,-0.0025302004,-487.9847,0.011324211,-0.013401235,-0.03383918,-0.08081265,-0.00090424286,0.00046052953,-0.0002578646,0.025156166,0.036317617,-0.0022263264,0.018891687,0.0003212651,0.00021882867,0.016992038,1.8539315e-05,487.9847,0.1000061,0.010000001,-487.9847,0.12009547,0.11287364,0.08015526,0.049226873,inf,inf,inf,inf,inf,160,1,1,1,1,3,3,2,1,5,1,1,1,0,3,0,0
1771685523388000,1771685523388000,1771685523388000,1771684928340000,47.3977419,8.5455939,0.020263223,-0.026150167,0.023284912,0.004007112,-0.0025302004,-487.9847,0.011583638,-0.013105995,-0.033722043,-0.08042281,-0.00090424286,0.00046052953,-0.0002578646,0.03885049,0.028613834,0.014543532,0.018911658,0.0003213832,0.00023695966,0.016992038,1.8583632e-05,487.9847,0.1000061,0.010000001,-487.9847,0.120499104,0.11312351,0.08045567,0.04930978,inf,inf,inf,inf,inf,160,1,1,1,1,3,3,2,1,5,1,1,1,0,3,0,0
1771685523396000,1771685523396000,1771685523396000,1771684928340000,47.3977419,8.5455939,0.020304358,-0.026175559,0.022979736,0.004007112,-0.0025302004,-487.9847,0.011556602,-0.012914749,-0.03384297,-0.080265224,-0.00090424286,0.00046052953,-0.0002578646,0.0028651499,0.015841816,-0.015389639,0.01896247,0.00032150117,0.00028594723,0.016992038,1.8627976e-05,487.9847,0.1000061,0.010000001,-487.9847,0.120905496,0.11331527,0.08075638,0.04938219,inf,inf,inf,inf,inf,160,1,1,1,1,3,3,2,1,5,1,1,1,0,3,0,0
1771685523404000,1771685523404000,1771685523404000,1771684928340000,47.3977419,8.5455939,0.020346832,-0.026201868,0.022705078,0.004007112,-0.0025302004,-487.9847,0.011762167,-0.012912491,-0.034068156,-0.08020831,-0.00090424286,0.00046052953,-0.0002578646,0.031770512,-0.007561089,-0.028528737,0.018962128,0.00032161927,0.00028377352,0.016992038,1.8672365e-05,487.9847,0.1000061,0.010000001,-487.9847,0.121314645,0.113566674,0.081057295,0.04946486,inf,inf,inf,inf,inf,160,1,1,1,1,3,3,2,1,5,1,1,1,0,3,0,0
1771685523412000,1771685523412000,1771685523412000,1771684928340000,47.3977419,8.5455939,0.020391649,-0.026229262,0.022399902,0.004007112,-0.0025302004,-487.9847,0.0118191345,-0.013035997,-0.034091357,-0.079946,-0.00090424286,0.00046052953,-0.0002578646,0.013033467,-0.023196166,-0.0033834947,0.018982003,0.0003215505,0.00030183,0.016992038,1.871465e-05,487.9847,0.1000061,0.010000001,-487.9847,0.12172614,0.11381891,0.081356205,0.0495474,inf,inf,inf,inf,inf,160,1,1,1,1,3,3,2,1,5,1,1,1,0,3,0,0
1771685523420000,1771685523420000,1771685523420000,1771684928340000,47.3977419,8.5455939,0.020438408,-0.02626057,0.022125244,0.004007112,-0.0025302004,-487.9847,0.012100452,-0.013500821,-0.034386396,-0.07995225,-0.00090424286,0.00046052953,-0.0002578646,0.040952858,-0.06569815,-0.03746338,0.018958779,0.00032081016,0.00027412502,0.016992038,1.8747982e-05,487.9847,0.1000061,0.010000001,-487.9847,0.12213836,0.11407199,0.081648536,0.049629815,inf,inf,inf,inf,inf,160,1,1,1,1,3,3,2,1,5,1,1,1,0,3,0,0
1771685523428000,1771685523428000,1771685523428000,1771684928340000,47.3977419,8.5455939,0.020460771,-0.02630542,0.02178955,0.004007112,-0.0025302004,-487.9847,0.011926731,-0.013796465,-0.034803446,-0.0801079,-0.00090424286,0.00046052953,-0.0002578646,-0.013908292,-0.04481031,-0.052458603,0.018938394,0.00032090407,0.00024966476,0.016992038,1.8511531e-05,487.9847,0.1000061,0.010000001,-487.9847,0.11989021,0.11274767,0.07999885,0.049184285,inf,inf,inf,inf,inf,160,1,1,1,1,3,3,2,1,5,1,1,1,0,3,0,0
1771685523436000,1771685523436000,1771685523436000,1771684928340000,47.3977419,8.5455939,0.020482548,-0.026351547,0.021484375,0.004007112,-0.0025302004,-487.9847,0.011650257,-0.01348307,-0.035248913,-0.08028787,-0.00090424286,0.00046052953,-0.0002578646,-0.026953302,0.031529542,-0.05611451,0.018980872,0.00032102186,0.00028805202,0.016992038,1.8555813e-05,487.9847,0.1000061,0.010000001,-487.9847,0.12029242,0.11299711,0.080298774,0.04926726,inf,inf,inf,inf,inf,160,1,1,1,1,3,3,2,1,5,1,1,1,0,3,0,0
1771685523444000,1771685523444000,1771685523444000,1771684928340000,47.3977419,8.5455939,0.020502405,-0.026397472,0.0211792,0.004007112,-0.0025302004,-487.9847,0.011129982,-0.013576194,-0.035358146,-0.080127664,-0.00090424286,0.00046052953,-0.0002578646,-0.057624098,-0.019082988,-0.014185439,0.01893917,0.00032113967,0.00024228869,0.016992038,1.8600134e-05,487.9847,0.1000061,0.010000001,-487.9847,0.12069738,0.11324738,0.080599345,0.0493501,inf,inf,inf,inf,inf,160,1,1,1,1,3,3,2,1,5,1,1,1,0,3,0,0
1771685523452000,1771685523452000,1771685523452000,1771684928340000,47.3977419,8.5455939,0.020522749,-0.026445389,0.020874023,0.004007112,-0.0025302004,-487.9847,0.011288338,-0.013611286,-0.035556614,-0.080049925,-0.00090424286,0.00046052953,-0.0002578646,0.02700656,-0.011629557,-0.025535,0.018901698,0.00032125754,0.00020079082,0.016992038,1.864449e-05,487.9847,0.1000061,0.010000001,-487.9847,0.12110508,0.11343936,0.08089966,0.049422402,inf,inf,inf,inf,inf,160,1,1,1,1,3,3,2,1,5,1,1,1,0,3,0,0
1771685523460000,1771685523460000,1771685523460000,1771684928340000,47.3977419,8.5455939,0.020543966,-0.02649506,0.020599365,0.004007112,-0.0025302004,-487.9847,0.011124477,-0.013732436,-0.03548625,-0.079699904,-0.00090424286,0.00046052953,-0.0002578646,-0.013461177,-0.022190468,0.007978174,0.018846054,0.00032137547,0.00014115451,0.016992038,1.8688885e-05,487.9847,0.1000061,0.010000001,-487.9847,0.12151556,0.113691166,0.081199646,0.04950501,inf,inf,inf,inf,inf,160,1,1,1,1,3,3,2,1,5,1,1,1,0,3,0,0
1771685523468000,1771685523468000,1771685523468000,1771684928340000,47.3977419,8.5455939,0.020566579,-0.02654587,0.02029419,0.004007112,-0.0025302004,-487.9847,0.011141067,-0.013627802,-0.035472773,-0.07940351,-0.00090424286,0.00046052953,-0.0002578646,0.008910554,0.0062289787,0.00077951694,0.018818015,0.00032149343,0.00010916358,0.016992038,1.8733317e-05,487.9847,0.1000061,0.010000001,-487.9847,0.12192879,0.113943815,0.08150118,0.04958749,inf,inf,inf,inf,inf,160,1,1,1,1,3,3,2,1,5,1,1,1,0,3,0,0
1771685523476000,1771685523476000,1771685523476000,1771684928340000,47.3977419,8.5455939,0.020573227,-0.026576381,0.019989014,0.004007112,-0.0025302004,-487.9847,0.01085996,-0.013437082,-0.035834067,-0.07950724,-0.00090424286,0.00046052953,-0.0002578646,-0.026795462,0.015105456,-0.04592491,0.018819738,0.00032158804,0.00010698242,0.016992038,1.8498711e-05,487.9847,0.1000061,0.010000001,-487.9847,0.11969539,0.112624615,0.07986347,0.049143843,inf,inf,inf,inf,inf,160,1,1,1,1,3,3,2,1,5,1,1,1,0,3,0,0
1771685523484000,1771685523484000,1771685523484000,1771684928340000,47.3977419,8.5455939,0.020579087,-0.026608057,0.019683838,0.004007112,-0.0025302004,-487.9847,0.010638188,-0.013613568,-0.03555745,-0.07896996,-0.00090424286,0.00046052953,-0.0002578646,-0.019600065,-0.030553712,0.03372505,0.018781155,0.0003217061,6.438373e-05,0.016992038,1.8542982e-05,487.9847,0.1000061,0.010000001,-487.9847,0.12009631,0.11287364,0.08016335,0.049226876,inf,inf,inf,inf,inf,160,1,1,1,1,3,3,2,1,5,1,1,1,0,3,0,0
1771685523492000,1771685523492000,1771685523492000,1771684928340000,47.3977419,8.5455939,0.020584602,-0.026641555,0.019378662,0.004007112,-0.0025302004,-487.9847,0.010826208,-0.013882184,-0.03584024,-0.07898912,-0.00090424286,0.00046052953,-0.0002578646,0.031877242,-0.042235047,-0.036286186,0.018824534,0.00032096426,0.000103802886,0.016992038,1.8576375e-05,487.9847,0.1000061,0.010000001,-487.9847,0.12049775,0.11312351,0.08045476,0.049309783,inf,inf,inf,inf,inf,160,1,1,1,1,3,3,2,1,5,1,1,1,0,3,0,0
1771685523500000,1771685523500000,1771685523500000,1771684928340000,47.3977419,8.5455939,0.02059233,-0.026677947,0.019073486,0.004007112,-0.0025302004,-487.9847,0.010745636,-0.013920524,-0.0363037,-0.07918313,-0.00090424286,0.00046052953,-0.0002578646,-0.0019165735,-0.013209224,-0.059063077,0.01879413,0.00032108204,7.294817e-05,0.016992038,1.8620714e-05,487.9847,0.1000061,0.010000001,-487.9847,0.120904125,0.11331527,0.0807537,0.049382195,inf,inf,inf,inf,inf,160,1,1,1,1,3,3,2,1,5,1,1,1,0,3,0,0
1771685523508000,1771685523508000,1771685523508000,1771684928340000,47.3977419,8.5455939,0.02060155,-0.026715953,0.018798828,0.004007112,-0.0025302004,-487.9847,0.010951953,-0.014019885,-0.036029004,-0.07863658,-0.00090424286,0.00046052953,-0.0002578646,0.033734854,-0.020604456,0.033129003,0.018833922,0.00032119986,0.00011235243,0.016992038,1.8665089e-05,487.9847,0.1000061,0.010000001,-487.9847,0.12131325,0.113566674,0.08105246,0.04946486,inf,inf,inf,inf,inf,160,1,1,1,1,3,3,2,1,5,1,1,1,0,3,0,0
1771685523516000,1771685523516000,1771685523516000,1771684928340000,47.3977419,8.5455939,0.020614939,-0.02675652,0.018493652,0.004007112,-0.0025302004,-487.9847,0.011252932,-0.014127151,-0.035863828,-0.0781964,-0.00090424286,0.00046052953,-0.0002578646,0.045357816,-0.021369364,0.019364523,0.018820368,0.00032131778,9.847386e-05,0.016992038,1.8709505e-05,487.9847,0.1000061,0.010000001,-487.9847,0.121725135,0.11381891,0.081352465,0.0495474,inf,inf,inf,inf,inf,160,1,1,1,1,3,3,2,1,5,1,1,1,0,3,0,0
1771685523524000,1771685523524000,1771685523524000,1771684928340000,47.3977419,8.5455939,0.020631878,-0.026798857,0.018218994,0.004007112,-0.0025302004,-487.9847,0.011426906,-0.014110014,-0.03555456,-0.07760916,-0.00090424286,0.00046052953,-0.0002578646,0.02927681,-0.005602025,0.037304122,0.018854734,0.00032143563,0.00013254536,0.016992038,1.8753952e-05,487.9847,0.1000061,0.010000001,-487.9847,0.12213978,0.11407199,0.081653886,0.049629815,inf,inf,inf,inf,inf,160,1,1,1,1,3,3,2,1,5,1,1,1,0,3,0,0
1771685523532000,1771685523532000,1771685523532000,1771684928340000,47.3977419,8.5455939,0.020624531,-0.026822688,0.017913818,0.004007112,-0.0025302004,-487.9847,0.01122917,-0.014004624,-0.03532034,-0.077129655,-0.00090424286,0.00046052953,-0.0002578646,-0.015288012,0.0036761195,0.028310807,0.018868836,0.00032153018,0.00014637178,0.016992038,1.8517338e-05,487.9847,0.1000061,0.010000001,-487.9847,0.11989147,0.11274767,0.0800036,0.049184285,inf,inf,inf,inf,inf,160,1,1,1,1,3,3,2,1,5,1,1,1,0,3,0,0
1771685523540000,1771685523540000,1771685523540000,1771684928340000,47.3977419,8.5455939,0.020619443,-0.026848074,0.017608643,0.004007112,-0.0025302004,-487.9847,0.011475489,-0.014077143,-0.035190642,-0.076751746,-0.00090424286,0.00046052953,-0.0002578646,0.039975446,-0.018303558,0.01516519,0.018873407,0.00032164817,0.00015056645,0.016992038,1.8561625e-05,487.9847,0.1000061,0.010000001,-487.9847,0.12029371,0.11299711,0.08030296,0.04926726,inf,inf,inf,inf,inf,160,1,1,1,1,3,3,2,1,5,1,1,1,0,3,0,0
1771685523548000,1771685523548000,1771685523548000,1771684928340000,47.3977419,8.5455939,0.020617556,-0.026875017,0.017303467,0.004007112,-0.0025302004,-487.9847,0.011433649,-0.013901105,-0.035223313,-0.07653344,-0.00090424286,0.00046052953,-0.0002578646,0.003714663,0.013012512,-0.0052088867,0.01893231,0.00032176622,0.0002091243,0.016992038,1.860595e-05,487.9847,0.1000061,0.010000001,-487.9847,0.12069868,0.11324738,0.08060309,0.0493501,inf,inf,inf,inf,inf,160,1,1,1,1,3,3,2,1,5,1,1,1,0,3,0,0
1771685523556000,1771685523556000,1771685523556000,1771684928340000,47.3977419,8.5455939,0.020615485,-0.026901718,0.017028809,0.004007112,-0.0025302004,-487.9847,0.011227295,-0.013513471,-0.035675637,-0.07672713,-0.00090424286,0.00046052953,-0.0002578646,-0.01690789,0.039753526,-0.057901718,0.018957099,0.0003210245,0.0002336069,0.016992038,1.863932e-05,487.9847,0.1000061,0.010000001,-487.9847,0.1211041,0.11343936,0.08089467,0.049422402,inf,inf,inf,inf,inf,160,1,1,1,1,3,3,2,1,5,1,1,1,0,3,0,0
1771685523564000,1771685523564000,1771685523564000,1771684928340000,47.3977419,8.5455939,0.020614645,-0.026928497,0.01675415,0.004007112,-0.0025302004,-487.9847,0.011277245,-0.013625659,-0.03583018,-0.076620705,-0.00090424286,0.00046052953,-0.0002578646,0.014893858,-0.022483036,-0.020747071,0.019013071,0.0003211423,0.00028901687,0.016992038,1.8683713e-05,487.9847,0.1000061,0.010000001,-487.9847,0.121514544,0.113691166,0.08119509,0.04950501,inf,inf,inf,inf,inf,160,1,1,1,1,3,3,2,1,5,1,1,1,0,3,0,0
1771685523572000,1771685523572000,1771685523572000,1771684928340000,47.3977419,8.5455939,0.020616971,-0.026959442,0.016448975,0.004007112,-0.0025302004,-487.9847,0.011465765,-0.014055058,-0.03584989,-0.07637723,-0.00090424286,0.00046052953,-0.0002578646,0.031984907,-0.061901763,-0.003958586,0.018999752,0.0003212601,0.0002751737,0.016992038,1.872814e-05,487.9847,0.1000061,0.010000001,-487.9847,0.12192775,0.113943815,0.081496626,0.049587492,inf,inf,inf,inf,inf,160,1,1,1,1,3,3,2,1,5,1,1,1,0,3,0,0
1771685523580000,1771685523580000,1771685523580000,1771684928340000,47.3977419,8.5455939,0.020605639,-0.026975349,0.016143799,0.004007112,-0.0025302004,-487.9847,0.0112154465,-0.014225021,-0.035884842,-0.076173306,-0.00090424286,0.00046052953,-0.0002578646,-0.021509366,-0.031239187,-0.005776528,0.018985227,0.00032135434,0.00026023528,0.016992038,1.8493694e-05,487.9847,0.1000061,0.010000001,-487.9847,0.11969448,0.112624615,0.079859205,0.049143847,inf,inf,inf,inf,inf,160,1,1,1,1,3,3,2,1,5,1,1,1,0,3,0,0
1771685523588000,1771685523588000,1771685523588000,1771684928340000,47.3977419,8.5455939,0.0205972,-0.026993603,0.01586914,0.004007112,-0.0025302004,-487.9847,0.011690895,-0.014284087,-0.035828393,-0.07587491,-0.00090424286,0.00046052953,-0.0002578646,0.0689569,-0.017109068,0.005582347,0.019054925,0.00032147224,0.0003294642,0.016992038,1.8537965e-05,487.9847,0.1000061,0.010000001,-487.9847,0.12009539,0.11287364,0.08015962,0.049226876,inf,inf,inf,inf,inf,160,1,1,1,1,3,3,2,1,5,1,1,1,0,3,0,0
1771685523596000,1771685523596000,1771685523596000,1771684928340000,47.3977419,8.5455939,0.020594722,-0.02701473,0.015563965,0.004007112,-0.0025302004,-487.9847,0.012080778,-0.014334989,-0.036077905,-0.07587951,-0.00090424286,0.00046052953,-0.0002578646,0.058013283,-0.015824005,-0.032726206,0.019059554,0.00032159023,0.0003337185,0.016992038,1.8582276e-05,487.9847,0.1000061,0.010000001,-487.9847,0.12049904,0.11312351,0.08045934,0.049309783,inf,inf,inf,inf,inf,160,1,1,1,1,3,3,2,1,5,1,1,1,0,3,0,0
1771685523604000,1771685523604000,1771685523604000,1771684928340000,47.3977419,8.5455939,0.020595992,-0.027037919,0.015258789,0.004007112,-0.0025302004,-487.9847,0.012089242,-0.014393573,-0.036091685,-0.07564351,-0.00090424286,0.00046052953,-0.0002578646,0.010094848,-0.016524607,-0.0033956019,0.019009706,0.0003217081,0.00028359285,0.016992038,1.8626612e-05,487.9847,0.1000061,0.010000001,-487.9847,0.120905444,0.11331527,0.08075991,0.049382195,inf,inf,inf,inf,inf,160,1,1,1,1,3,3,2,1,5,1,1,1,0,3,0,0
1771685523612000,1771685523612000,1771685523612000,1771684928340000,47.3977419,8.5455939,0.020597054,-0.027061734,0.014984131,0.004007112,-0.0025302004,-487.9847,0.011655921,-0.014352899,-0.0364115,-0.07571093,-0.00090424286,0.00046052953,-0.0002578646,-0.045256607,-0.00420432,-0.04170695,0.018981159,0.00032163967,0.00025486154,0.016992038,1.8668865e-05,487.9847,0.1000061,0.010000001,-487.9847,0.1213142,0.113566674,0.08105817,0.04946486,inf,inf,inf,inf,inf,160,1,1,1,1,3,3,2,1,5,1,1,1,0,3,0,0
1771685523620000,1771685523620000,1771685523620000,1771684928340000,47.3977419,8.5455939,0.020596834,-0.02708872,0.014709473,0.004007112,-0.0025302004,-487.9847,0.011396616,-0.014811053,-0.0368215,-0.07586609,-0.00090424286,0.00046052953,-0.0002578646,-0.02374279,-0.06630407,-0.05303416,0.019055845,0.0003217576,0.00032834662,0.016992038,1.8713275e-05,487.9847,0.1000061,0.010000001,-487.9847,0.1217261,0.11381891,0.08135868,0.0495474,inf,inf,inf,inf,inf,160,1,1,1,1,3,3,2,1,5,1,1,1,0,3,0,0
1771685523628000,1771685523628000,1771685523628000,1771684928340000,47.3977419,8.5455939,0.02059417,-0.02712122,0.014404297,0.004007112,-0.0025302004,-487.9847,0.01121993,-0.015176411,-0.036915094,-0.0757025,-0.00090424286,0.00046052953,-0.0002578646,-0.013023123,-0.05450989,-0.013536307,0.01903245,0.00032101627,0.00030384725,0.016992038,1.87466e-05,487.9847,0.1000061,0.010000001,-487.9847,0.12213833,0.11407199,0.081650846,0.049629815,inf,inf,inf,inf,inf,160,1,1,1,1,3,3,2,1,5,1,1,1,0,3,0,0
1771685523636000,1771685523636000,1771685523636000,1771684928340000,47.3977419,8.5455939,0.020558247,-0.0271385,0.014099121,0.004007112,-0.0025302004,-487.9847,0.011210481,-0.015430853,-0.037141725,-0.07570627,-0.00090424286,0.00046052953,-0.0002578646,0.010082859,-0.042342782,-0.029709654,0.019011572,0.00032111045,0.0002825535,0.016992038,1.8510156e-05,487.9847,0.1000061,0.010000001,-487.9847,0.11989018,0.11274767,0.07999984,0.04918428,inf,inf,inf,inf,inf,160,1,1,1,1,3,3,2,1,5,1,1,1,0,3,0,0
1771685523644000,1771685523644000,1771685523644000,1771684928340000,47.3977419,8.5455939,0.020525848,-0.027160298,0.013793945,0.004007112,-0.0025302004,-487.9847,0.011238957,-0.015693327,-0.03727209,-0.0756104,-0.00090424286,0.00046052953,-0.0002578646,0.014527443,-0.04306012,-0.01773983,0.018967345,0.00032122814,0.00023786118,0.016992038,1.855443e-05,487.9847,0.1000061,0.010000001,-487.9847,0.120292395,0.11299711,0.08030019,0.049267255,inf,inf,inf,inf,inf,160,1,1,1,1,3,3,2,1,5,1,1,1,0,3,0,0
1771685523652000,1771685523652000,1771685523652000,1771684928340000,47.3977419,8.5455939,0.02049703,-0.02718538,0.0134887695,0.004007112,-0.0025302004,-487.9847,0.011555435,-0.015728164,-0.03748835,-0.07559714,-0.00090424286,0.00046052953,-0.0002578646,0.05024524,-0.014322717,-0.028538516,0.018937921,0.00032134584,0.00020805886,0.016992038,1.8598737e-05,487.9847,0.1000061,0.010000001,-487.9847,0.12069736,0.11324738,0.080601156,0.049350098,inf,inf,inf,inf,inf,160,1,1,1,1,3,3,2,1,5,1,1,1,0,3,0,0
1771685523660000,1771685523660000,1771685523660000,1771684928340000,47.3977419,8.5455939,0.020472018,-0.02721306,0.013183594,0.004007112,-0.0025302004,-487.9847,0.011412932,-0.015844725,-0.03754556,-0.07541968,-0.00090424286,0.00046052953,-0.0002578646,-0.0074073165,-0.024265742,-0.008772592,0.018948931,0.00032146368,0.0002186927,0.016992038,1.8643092e-05,487.9847,0.1000061,0.010000001,-487.9847,0.12110507,0.11343936,0.08090065,0.0494224,inf,inf,inf,inf,inf,160,1,1,1,1,3,3,2,1,5,1,1,1,0,3,0,0
1771685523668000,1771685523668000,1771685523668000,1771684928340000,47.3977419,8.5455939,0.02044767,-0.02724435,0.012878418,0.004007112,-0.0025302004,-487.9847,0.011170367,-0.016108127,-0.03776502,-0.07540163,-0.00090424286,0.00046052953,-0.0002578646,-0.020189567,-0.042353623,-0.02910895,0.018965319,0.0003215815,0.00023470772,0.016992038,1.8687479e-05,487.9847,0.1000061,0.010000001,-487.9847,0.12151554,0.113691166,0.081200756,0.049505007,inf,inf,inf,inf,inf,160,1,1,1,1,3,3,2,1,5,1,1,1,0,3,0,0
1771685523676000,1771685523676000,1771685523676000,1771684928340000,47.3977419,8.5455939,0.020424834,-0.027279647,0.012573242,0.004007112,-0.0025302004,-487.9847,0.011222752,-0.01629187,-0.037715957,-0.075112425,-0.00090424286,0.00046052953,-0.0002578646,0.016412929,-0.03213555,0.0044018957,0.018935965,0.00032169936,0.00020497618,0.016992038,1.8731906e-05,487.9847,0.1000061,0.010000001,-487.9847,0.121928774,0.113943815,0.0815007,0.049587484,inf,inf,inf,inf,inf,160,1,1,1,1,3,3,2,1,5,1,1,1,0,3,0,0
1771685523684000,1771685523684000,1771685523684000,1771684928340000,47.3977419,8.5455939,0.020393198,-0.02729878,0.012268066,0.004007112,-0.0025302004,-487.9847,0.011538749,-0.01636124,-0.037928756,-0.0751182,-0.00090424286,0.00046052953,-0.0002578646,0.050475936,-0.019558655,-0.027934087,0.018896941,0.0003217944,0.0001655682,0.016992038,1.8497361e-05,487.9847,0.1000061,0.010000001,-487.9847,0.1196954,0.112624615,0.079861455,0.04914384,inf,inf,inf,inf,inf,160,1,1,1,1,3,3,2,1,5,1,1,1,0,3,0,0
1771685523692000,1771685523692000,1771685523692000,1771684928340000,47.3977419,8.5455939,0.02036699,-0.027320232,0.011932373,0.004007112,-0.0025302004,-487.9847,0.011899571,-0.016158877,-0.038059913,-0.07503884,-0.00090424286,0.00046052953,-0.0002578646,0.055730224,0.014853995,-0.017791985,0.01893259,0.0003210524,0.00020068092,0.016992038,1.8530764e-05,487.9847,0.1000061,0.010000001,-487.9847,0.12009414,0.11287364,0.08015171,0.049226876,inf,inf,inf,inf,inf,160,1,1,1,1,3,3,2,1,5,1,1,1,0,3,0,0
1771685523700000,1771685523700000,1771685523700000,1771684928340000,47.3977419,8.5455939,0.020344773,-0.027343186,0.011627197,0.004007112,-0.0025302004,-487.9847,0.01170658,-0.01621597,-0.038156793,-0.07492191,-0.00090424286,0.00046052953,-0.0002578646,-0.013777932,-0.017285096,-0.013568438,0.018914217,0.00032117002,0.00018047867,0.016992038,1.8575056e-05,487.9847,0.1000061,0.010000001,-487.9847,0.12049776,0.11312351,0.08045142,0.049309783,inf,inf,inf,inf,inf,160,1,1,1,1,3,3,2,1,5,1,1,1,0,3,0,0
1771685523708000,1771685523708000,1771685523708000,1771684928340000,47.3977419,8.5455939,0.020321293,-0.02736947,0.0113220215,0.004007112,-0.0025302004,-487.9847,0.011122744,-0.01630362,-0.038448844,-0.07499497,-0.00090424286,0.00046052953,-0.0002578646,-0.06290689,-0.020827927,-0.038103662,0.01894375,0.00032128784,0.00020817993,0.016992038,1.8619394e-05,487.9847,0.1000061,0.010000001,-487.9847,0.12090412,0.11331527,0.08075242,0.04938219,inf,inf,inf,inf,inf,160,1,1,1,1,3,3,2,1,5,1,1,1,0,3,0,0
1771685523716000,1771685523716000,1771685523716000,1771684928340000,47.3977419,8.5455939,0.020297728,-0.027398068,0.010986328,0.004007112,-0.0025302004,-487.9847,0.011104489,-0.016317185,-0.03841974,-0.074743845,-0.00090424286,0.00046052953,-0.0002578646,0.007528616,-0.011302882,0.0019865108,0.018954134,0.00032140562,0.00021672761,0.016992038,1.8663766e-05,487.9847,0.1000061,0.010000001,-487.9847,0.121313244,0.113566674,0.08105307,0.04946486,inf,inf,inf,inf,inf,160,1,1,1,1,3,3,2,1,5,1,1,1,0,3,0,0
1771685523724000,1771685523724000,1771685523724000,1771684928340000,47.3977419,8.5455939,0.02027699,-0.027430207,0.010681152,0.004007112,-0.0025302004,-487.9847,0.011071397,-0.016622258,-0.038040426,-0.07413963,-0.00090424286,0.00046052953,-0.0002578646,0.005416956,-0.047479402,0.04571024,0.018851612,0.00032152326,0.000112378504,0.016992038,1.8708164e-05,487.9847,0.1000061,0.010000001,-487.9847,0.12172513,0.11381891,0.08135375,0.0495474,inf,inf,inf,inf,inf,160,1,1,1,1,3,3,2,1,5,1,1,1,0,3,0,0
1771685523732000,1771685523732000,1771685523732000,1771684928340000,47.3977419,8.5455939,0.02025751,-0.02746662,0.010406494,0.004007112,-0.0025302004,-487.9847,0.010938435,-0.016784502,-0.03791461,-0.07378619,-0.00090424286,0.00046052953,-0.0002578646,-0.007320047,-0.029375846,0.013972166,0.018805543,0.00032164107,6.447686e-05,0.016992038,1.8752608e-05,487.9847,0.1000061,0.010000001,-487.9847,0.12213978,0.11407199,0.08165452,0.049629815,inf,inf,inf,inf,inf,160,1,1,1,1,3,3,2,1,5,1,1,1,0,3,0,0
1771685523740000,1771685523740000,1771685523740000,1771684928340000,47.3977419,8.5455939,0.020215984,-0.027493011,0.010070801,0.004007112,-0.0025302004,-487.9847,0.010939124,-0.016922368,-0.03782777,-0.073495634,-0.00090424286,0.00046052953,-0.0002578646,0.01114042,-0.027727474,0.009182374,0.018790273,0.00032173542,4.7377776e-05,0.016992038,1.8516e-05,487.9847,0.1000061,0.010000001,-487.9847,0.119891465,0.11274767,0.08000421,0.049184285,inf,inf,inf,inf,inf,160,1,1,1,1,3,3,2,1,5,1,1,1,0,3,0,0
1771685523748000,1771685523748000,1771685523748000,1771684928340000,47.3977419,8.5455939,0.020178279,-0.027524212,0.009765625,0.004007112,-0.0025302004,-487.9847,0.0111730555,-0.017288245,-0.03786484,-0.07332559,-0.00090424286,0.00046052953,-0.0002578646,0.04000298,-0.055940732,-0.0063572074,0.018800765,0.0003218533,5.591428e-05,0.016992038,1.8560282e-05,487.9847,0.1000061,0.010000001,-487.9847,0.12029371,0.11299711,0.08030463,0.04926726,inf,inf,inf,inf,inf,160,1,1,1,1,3,3,2,1,5,1,1,1,0,3,0,0
1771685523756000,1771685523756000,1771685523756000,1771684928340000,47.3977419,8.5455939,0.020144515,-0.027559554,0.009460449,0.004007112,-0.0025302004,-487.9847,0.011228279,-0.017440733,-0.03803096,-0.07328135,-0.00090424286,0.00046052953,-0.0002578646,0.017373808,-0.02898813,-0.022537539,0.018799642,0.00032197117,5.2827876e-05,0.016992038,1.8604598e-05,487.9847,0.1000061,0.010000001,-487.9847,0.12069869,0.11324738,0.08060454,0.0493501,inf,inf,inf,inf,inf,160,1,1,1,1,3,3,2,1,5,1,1,1,0,3,0,0
1771685523764000,1771685523764000,1771685523764000,1771684928340000,47.3977419,8.5455939,0.020112587,-0.027597621,0.009155273,0.004007112,-0.0025302004,-487.9847,0.011168009,-0.017540772,-0.037846368,-0.07288027,-0.00090424286,0.00046052953,-0.0002578646,0.0028352796,-0.022288907,0.021150334,0.018794212,0.0003212284,4.542945e-05,0.016992038,1.8637955e-05,487.9847,0.1000061,0.010000001,-487.9847,0.12110411,0.11343936,0.08089607,0.0494224,inf,inf,inf,inf,inf,160,1,1,1,1,3,3,2,1,5,1,1,1,0,3,0,0
1771685523772000,1771685523772000,1771685523772000,1771684928340000,47.3977419,8.5455939,0.020084053,-0.02763858,0.008880615,0.004007112,-0.0025302004,-487.9847,0.011444616,-0.017618295,-0.037776377,-0.072590835,-0.00090424286,0.00046052953,-0.0002578646,0.044668783,-0.019209087,0.006782822,0.01882175,0.0003213461,7.207086e-05,0.016992038,1.8682338e-05,487.9847,0.1000061,0.010000001,-487.9847,0.12151456,0.113691166,0.08119737,0.049505003,inf,inf,inf,inf,inf,160,1,1,1,1,3,3,2,1,5,1,1,1,0,3,0,0
1771685523780000,1771685523780000,1771685523780000,1771684928340000,47.3977419,8.5455939,0.0200613,-0.027682336,0.008575439,0.004007112,-0.0025302004,-487.9847,0.011858203,-0.01774026,-0.03789758,-0.07248976,-0.00090424286,0.00046052953,-0.0002578646,0.06152313,-0.024507714,-0.017157754,0.018783167,0.00032146383,3.2607e-05,0.016992038,1.8726761e-05,487.9847,0.1000061,0.010000001,-487.9847,0.121927775,0.113943815,0.081498176,0.04958748,inf,inf,inf,inf,inf,160,1,1,1,1,3,3,2,1,5,1,1,1,0,3,0,0
1771685523788000,1771685523788000,1771685523788000,1771684928340000,47.3977419,8.5455939,0.020019034,-0.027716413,0.008270264,0.004007112,-0.0025302004,-487.9847,0.011714061,-0.018187718,-0.03750023,-0.07188881,-0.00090424286,0.00046052953,-0.0002578646,-0.006568203,-0.06675777,0.047533303,0.018720133,0.0003215582,-3.128918e-05,0.016992038,1.8492316e-05,487.9847,0.1000061,0.010000001,-487.9847,0.119694486,0.112624615,0.079860315,0.04914384,inf,inf,inf,inf,inf,160,1,1,1,1,3,3,2,1,5,1,1,1,0,3,0,0
1771685523796000,1771685523796000,1771685523796000,1771684928340000,47.3977419,8.5455939,0.019979287,-0.027755901,0.007965088,0.004007112,-0.0025302004,-487.9847,0.011802946,-0.018492086,-0.037251215,-0.071433805,-0.00090424286,0.00046052953,-0.0002578646,0.022260414,-0.04857675,0.028955748,0.01868705,0.00032167602,-6.537931e-05,0.016992038,1.8536577e-05,487.9847,0.1000061,0.010000001,-487.9847,0.1200954,0.11287364,0.080160104,0.049226876,inf,inf,inf,inf,inf,160,1,1,1,1,3,3,2,1,5,1,1,1,0,3,0,0
1771685523804000,1771685523804000,1771685523804000,1771684928340000,47.3977419,8.5455939,0.019945359,-0.027800035,0.0076904297,0.004007112,-0.0025302004,-487.9847,0.01232915,-0.01873151,-0.036901504,-0.0708758,-0.00090424286,0.00046052953,-0.0002578646,0.076630875,-0.040172137,0.041508578,0.018725295,0.00032179386,-2.8145034e-05,0.016992038,1.8580875e-05,487.9847,0.1000061,0.010000001,-487.9847,0.12049905,0.11312351,0.08046055,0.049309783,inf,inf,inf,inf,inf,160,1,1,1,1,3,3,2,1,5,1,1,1,0,3,0,0
1771685523812000,1771685523812000,1771685523812000,1771684928340000,47.3977419,8.5455939,0.019918462,-0.027847946,0.007385254,0.004007112,-0.0025302004,-487.9847,0.012563966,-0.018906213,-0.036809124,-0.07056893,-0.00090424286,0.00046052953,-0.0002578646,0.039702598,-0.031796843,0.00918284,0.018759323,0.00032172588,4.8815273e-06,0.016992038,1.8623103e-05,487.9847,0.1000061,0.010000001,-487.9847,0.12090506,0.11331527,0.08075889,0.04938219,inf,inf,inf,inf,inf,160,1,1,1,1,3,3,2,1,5,1,1,1,0,3,0,0
1771685523820000,1771685523820000,1771685523820000,1771684928340000,47.3977419,8.5455939,0.01989527,-0.027899332,0.0071105957,0.004007112,-0.0025302004,-487.9847,0.012613649,-0.019038813,-0.03679315,-0.07033648,-0.00090424286,0.00046052953,-0.0002578646,0.016286798,-0.026261035,-0.00039581207,0.01882069,0.00032184363,6.5544154e-05,0.016992038,1.8667466e-05,487.9847,0.1000061,0.010000001,-487.9847,0.12131421,0.113566674,0.08105963,0.049464855,inf,inf,inf,inf,inf,160,1,1,1,1,3,3,2,1,5,1,1,1,0,3,0,0
1771685523828000,1771685523828000,1771685523828000,1771684928340000,47.3977419,8.5455939,0.019875353,-0.027952971,0.0068359375,0.004007112,-0.0025302004,-487.9847,0.012687223,-0.019042302,-0.0366957,-0.07002071,-0.00090424286,0.00046052953,-0.0002578646,0.019036977,-0.009934339,0.009761657,0.018842675,0.00032110207,8.682115e-05,0.016992038,1.8700797e-05,487.9847,0.1000061,0.010000001,-487.9847,0.121723734,0.11381891,0.081350714,0.049547397,inf,inf,inf,inf,inf,160,1,1,1,1,3,3,2,1,5,1,1,1,0,3,0,0
1771685523836000,1771685523836000,1771685523836000,1771684928340000,47.3977419,8.5455939,0.019858452,-0.02801022,0.0065612793,0.004007112,-0.0025302004,-487.9847,0.01269724,-0.01946132,-0.03656407,-0.06966901,-0.00090424286,0.00046052953,-0.0002578646,0.01082813,-0.061609343,0.014008488,0.018925933,0.0003212196,0.00016999198,0.016992038,1.8745228e-05,487.9847,0.1000061,0.010000001,-487.9847,0.122138366,0.11407199,0.081652194,0.049629815,inf,inf,inf,inf,inf,160,1,1,1,1,3,3,2,1,5,1,1,1,0,3,0,0
1771685523844000,1771685523844000,1771685523844000,1771684928340000,47.3977419,8.5455939,0.019821115,-0.028050328,0.006286621,0.004007112,-0.0025302004,-487.9847,0.012878498,-0.019551411,-0.036565587,-0.06946916,-0.00090424286,0.00046052953,-0.0002578646,0.033966653,-0.022552239,-0.0027976928,0.018893043,0.00032131327,0.00013701012,0.016992038,1.850877e-05,487.9847,0.1000061,0.010000001,-487.9847,0.119890176,0.11274767,0.080002405,0.04918429,inf,inf,inf,inf,inf,160,1,1,1,1,3,3,2,1,5,1,1,1,0,3,0,0
1771685523852000,1771685523852000,1771685523852000,1771684928340000,47.3977419,8.5455939,0.0197883,-0.028089816,0.006011963,0.004007112,-0.0025302004,-487.9847,0.012872137,-0.018899476,-0.03659638,-0.069296286,-0.00090424286,0.00046052953,-0.0002578646,0.010212053,0.07050761,-0.006477348,0.018851703,0.00032143085,9.540981e-05,0.016992038,1.8553039e-05,487.9847,0.1000061,0.010000001,-487.9847,0.120292395,0.11299711,0.0803021,0.049267262,inf,inf,inf,inf,inf,160,1,1,1,1,3,3,2,1,5,1,1,1,0,3,0,0
1771685523860000,1771685523860000,1771685523860000,1771684928340000,47.3977419,8.5455939,0.019755824,-0.02812796,0.005706787,0.004007112,-0.0025302004,-487.9847,0.012311221,-0.018485542,-0.036253083,-0.068747096,-0.00090424286,0.00046052953,-0.0002578646,-0.059404634,0.04105622,0.040265262,0.018858261,0.0003215485,0.0001017428,0.016992038,1.8597344e-05,487.9847,0.1000061,0.010000001,-487.9847,0.120697364,0.11324738,0.080602385,0.049350105,inf,inf,inf,inf,inf,160,1,1,1,1,3,3,2,1,5,1,1,1,0,3,0,0
1771685523868000,1771685523868000,1771685523868000,1771684928340000,47.3977419,8.5455939,0.019723909,-0.028164774,0.0054626465,0.004007112,-0.0025302004,-487.9847,0.012340565,-0.018046273,-0.036292184,-0.068575166,-0.00090424286,0.00046052953,-0.0002578646,0.014090349,0.04451457,-0.0076480205,0.018832898,0.0003216662,7.618917e-05,0.016992038,1.8641687e-05,487.9847,0.1000061,0.010000001,-487.9847,0.12110508,0.11343936,0.080902405,0.049422406,inf,inf,inf,inf,inf,160,1,1,1,1,3,3,2,1,5,1,1,1,0,3,0,0
1771685523876000,1771685523876000,1771685523876000,1771684928340000,47.3977419,8.5455939,0.019695217,-0.028202426,0.0051879883,0.004007112,-0.0025302004,-487.9847,0.012213701,-0.018046949,-0.036445614,-0.06851573,-0.00090424286,0.00046052953,-0.0002578646,-0.0057145543,-0.010190019,-0.021953134,0.0188149,0.0003217839,5.8039557e-05,0.016992038,1.8686067e-05,487.9847,0.1000061,0.010000001,-487.9847,0.12151556,0.113691166,0.0812018,0.049505014,inf,inf,inf,inf,inf,160,1,1,1,1,3,3,2,1,5,1,1,1,0,3,0,0
1771685523884000,1771685523884000,1771685523884000,1771684928340000,47.3977419,8.5455939,0.019667564,-0.028241709,0.00491333,0.004007112,-0.0025302004,-487.9847,0.011969946,-0.017889583,-0.0367762,-0.0686318,-0.00090424286,0.00046052953,-0.0002578646,-0.02059867,0.009839826,-0.044111624,0.018811826,0.00032190178,5.485257e-05,0.016992038,1.8730494e-05,487.9847,0.1000061,0.010000001,-487.9847,0.121928796,0.113943815,0.08150208,0.049587492,inf,inf,inf,inf,inf,160,1,1,1,1,3,3,2,1,5,1,1,1,0,3,0,0
1771685523892000,1771685523892000,1771685523892000,1771684928340000,47.3977419,8.5455939,0.01962901,-0.028259173,0.004638672,0.004007112,-0.0025302004,-487.9847,0.011749451,-0.01764838,-0.037035074,-0.06868201,-0.00090424286,0.00046052953,-0.0002578646,-0.016676154,0.018197557,-0.035739966,0.018826822,0.00032199651,6.9768634e-05,0.016992038,1.8495932e-05,487.9847,0.1000061,0.010000001,-487.9847,0.1196954,0.112624615,0.07986324,0.049143847,inf,inf,inf,inf,inf,160,1,1,1,1,3,3,2,1,5,1,1,1,0,3,0,0
1771685523900000,1771685523900000,1771685523900000,1771684928340000,47.3977419,8.5455939,0.019596979,-0.028279232,0.0043640137,0.004007112,-0.0025302004,-487.9847,0.0120558515,-0.017558526,-0.037016336,-0.06845298,-0.00090424286,0.00046052953,-0.0002578646,0.0482122,-6.2757856e-05,-0.0010346993,0.018762061,0.0003212535,4.779082e-06,0.016992038,1.8529323e-05,487.9847,0.1000061,0.010000001,-487.9847,0.12009415,0.11287364,0.08015393,0.049226884,inf,inf,inf,inf,inf,160,1,1,1,1,3,3,2,1,5,1,1,1,0,3,0,0
1771685523908000,1771685523908000,1771685523908000,1771684928340000,47.3977419,8.5455939,0.019569112,-0.028303012,0.004119873,0.004007112,-0.0025302004,-487.9847,0.011927784,-0.017918568,-0.036848664,-0.06807347,-0.00090424286,0.00046052953,-0.0002578646,-0.006360568,-0.055988673,0.017586628,0.018754657,0.00032137104,-5.813781e-06,0.016992038,1.857361e-05,487.9847,0.1000061,0.010000001,-487.9847,0.12049777,0.11312351,0.08045405,0.04930979,inf,inf,inf,inf,inf,160,1,1,1,1,3,3,2,1,5,1,1,1,0,3,0,0
1771685523916000,1771685523916000,1771685523916000,1771684928340000,47.3977419,8.5455939,0.01954193,-0.028332828,0.0038452148,0.004007112,-0.0025302004,-487.9847,0.011593299,-0.01830137,-0.036996067,-0.068004586,-0.00090424286,0.00046052953,-0.0002578646,-0.03242487,-0.058533072,-0.021904705,0.018810116,0.00032148862,4.6487432e-05,0.016992038,1.8617931e-05,487.9847,0.1000061,0.010000001,-487.9847,0.12090414,0.11331527,0.080753505,0.0493822,inf,inf,inf,inf,inf,160,1,1,1,1,3,3,2,1,5,1,1,1,0,3,0,0
1771685523924000,1771685523924000,1771685523924000,1771684928340000,47.3977419,8.5455939,0.019513793,-0.028366858,0.0036010742,0.004007112,-0.0025302004,-487.9847,0.011000726,-0.018383361,-0.037234697,-0.06802575,-0.00090424286,0.00046052953,-0.0002578646,-0.06494458,-0.020637194,-0.0332999,0.018798376,0.00032160626,3.1638425e-05,0.016992038,1.8662293e-05,487.9847,0.1000061,0.010000001,-487.9847,0.12131326,0.113566674,0.0810537,0.04946487,inf,inf,inf,inf,inf,160,1,1,1,1,3,3,2,1,5,1,1,1,0,3,0,0
1771685523932000,1771685523932000,1771685523932000,1771684928340000,47.3977419,8.5455939,0.019485142,-0.028404368,0.003326416,0.004007112,-0.0025302004,-487.9847,0.010833451,-0.018547917,-0.037008956,-0.06758147,-0.00090424286,0.00046052953,-0.0002578646,-0.012038655,-0.030672641,0.024755018,0.01887395,0.00032172396,0.000104112085,0.016992038,1.8706694e-05,487.9847,0.1000061,0.010000001,-487.9847,0.12172515,0.11381891,0.08135475,0.04954741,inf,inf,inf,inf,inf,160,1,1,1,1,3,3,2,1,5,1,1,1,0,3,0,0
1771685523940000,1771685523940000,1771685523940000,1771684928340000,47.3977419,8.5455939,0.019457428,-0.028444774,0.0030822754,0.004007112,-0.0025302004,-487.9847,0.0105327,-0.018508077,-0.03691751,-0.06727052,-0.00090424286,0.00046052953,-0.0002578646,-0.02896808,-0.0048393747,0.007976777,0.018935697,0.00032184168,0.00016276864,0.016992038,1.875113e-05,487.9847,0.1000061,0.010000001,-487.9847,0.122139804,0.11407199,0.081654474,0.049629826,inf,inf,inf,inf,inf,160,1,1,1,1,3,3,2,1,5,1,1,1,0,3,0,0
1771685523948000,1771685523948000,1771685523948000,1771684928340000,47.3977419,8.5455939,0.019427776,-0.028462404,0.0028076172,0.004007112,-0.0025302004,-487.9847,0.010495865,-0.01843808,-0.036554307,-0.06669641,-0.00090424286,0.00046052953,-0.0002578646,0.0047286875,-0.0034284191,0.041485295,0.01895906,0.00032193586,0.00018305471,0.016992038,1.8514567e-05,487.9847,0.1000061,0.010000001,-487.9847,0.119891495,0.11274767,0.08000352,0.049184296,inf,inf,inf,inf,inf,160,1,1,1,1,3,3,2,1,5,1,1,1,0,3,0,0
1771685523956000,1771685523956000,1771685523956000,1771684928340000,47.3977419,8.5455939,0.019400364,-0.028482882,0.0025634766,0.004007112,-0.0025302004,-487.9847,0.010466539,-0.01843752,-0.036310926,-0.06624022,-0.00090424286,0.00046052953,-0.0002578646,0.005404675,-0.011775913,0.026530119,0.018915473,0.00032205373,0.00013619987,0.016992038,1.8558845e-05,487.9847,0.1000061,0.010000001,-487.9847,0.12029373,0.11299711,0.08030249,0.049267273,inf,inf,inf,inf,inf,160,1,1,1,1,3,3,2,1,5,1,1,1,0,3,0,0
1771685523964000,1771685523964000,1771685523964000,1771684928340000,47.3977419,8.5455939,0.019376667,-0.028504534,0.002319336,0.004007112,-0.0025302004,-487.9847,0.010839353,-0.018192597,-0.03622131,-0.065936066,-0.00090424286,0.00046052953,-0.0002578646,0.055432316,0.018990599,0.007331371,0.018902697,0.00032131077,0.00012016995,0.016992038,1.8592216e-05,487.9847,0.1000061,0.010000001,-487.9847,0.12069645,0.11324738,0.080593124,0.049350124,inf,inf,inf,inf,inf,160,1,1,1,1,3,3,2,1,5,1,1,1,0,3,0,0
1771685523972000,1771685523972000,1771685523972000,1771684928340000,47.3977419,8.5455939,0.019357473,-0.028527027,0.0020751953,0.004007112,-0.0025302004,-487.9847,0.010871752,-0.018002514,-0.036480233,-0.06597484,-0.00090424286,0.00046052953,-0.0002578646,0.012630027,0.012454793,-0.036344394,0.018886961,0.00032142832,0.00010207435,0.016992038,1.8636558e-05,487.9847,0.1000061,0.010000001,-487.9847,0.12110413,0.11343936,0.080893174,0.049422424,inf,inf,inf,inf,inf,160,1,1,1,1,3,3,2,1,5,1,1,1,0,3,0,0
1771685523980000,1771685523980000,1771685523980000,1771684928340000,47.3977419,8.5455939,0.01934075,-0.028553005,0.0018615723,0.004007112,-0.0025302004,-487.9847,0.010908397,-0.018322641,-0.03637974,-0.06565286,-0.00090424286,0.00046052953,-0.0002578646,0.0129188765,-0.05100732,0.008607748,0.018918147,0.00032154584,0.00013090624,0.016992038,1.868093e-05,487.9847,0.1000061,0.010000001,-487.9847,0.121514566,0.113691166,0.08119332,0.049505033,inf,inf,inf,inf,inf,160,1,1,1,1,3,3,2,1,5,1,1,1,0,3,0,0
1771685523988000,1771685523988000,1771685523988000,1771684928340000,47.3977419,8.5455939,0.019326545,-0.028582975,0.0016174316,0.004007112,-0.0025302004,-487.9847,0.010937974,-0.018376978,-0.036227006,-0.06527745,-0.00090424286,0.00046052953,-0.0002578646,0.011808614,-0.017481575,0.015162396,0.018879062,0.0003216636,8.947356e-05,0.016992038,1.8725354e-05,487.9847,0.1000061,0.010000001,-487.9847,0.12192777,0.113943815,0.08149362,0.04958751,inf,inf,inf,inf,inf,160,1,1,1,1,3,3,2,1,5,1,1,1,0,3,0,0
1771685523996000,1771685523996000,1771685523996000,1771684928340000,47.3977419,8.5455939,0.01930103,-0.02858379,0.001373291,0.004007112,-0.0025302004,-487.9847,0.0112138465,-0.018427256,-0.03569723,-0.0645333,-0.00090424286,0.00046052953,-0.0002578646,0.044055447,-0.019780114,0.061844938,0.018914491,0.00032175734,0.00012255041,0.016992038,1.8491026e-05,487.9847,0.1000061,0.010000001,-487.9847,0.11969454,0.112624615,0.07985554,0.04914387,inf,inf,inf,inf,inf,160,1,1,1,1,3,3,2,1,5,1,1,1,0,3,0,0
1771685524004000,1771685524004000,1771685524004000,1771684928340000,47.3977419,8.5455939,0.019278638,-0.028588474,0.001159668,0.004007112,-0.0025302004,-487.9847,0.011087384,-0.018567933,-0.03555063,-0.06417102,-0.00090424286,0.00046052953,-0.0002578646,-0.0065068793,-0.03070742,0.0139852045,0.018949108,0.00032187504,0.00015455997,0.016992038,1.853528e-05,487.9847,0.1000061,0.010000001,-487.9847,0.12009544,0.11287364,0.08015503,0.049226902,inf,inf,inf,inf,inf,160,1,1,1,1,3,3,2,1,5,1,1,1,0,3,0,0
1771685524012000,1771685524012000,1771685524012000,1771684928340000,47.3977419,8.5455939,0.019257922,-0.028596941,0.00091552734,0.004007112,-0.0025302004,-487.9847,0.010956989,-0.01863226,-0.035868883,-0.06427245,-0.00090424286,0.00046052953,-0.0002578646,-0.007344924,-0.020872932,-0.044084616,0.018944267,0.0003218073,0.00014711125,0.016992038,1.857747e-05,487.9847,0.1000061,0.010000001,-487.9847,0.12049869,0.11312351,0.08045185,0.049309805,inf,inf,inf,inf,inf,160,1,1,1,1,3,3,2,1,5,1,1,1,0,3,0,0
1771685524020000,1771685524020000,1771685524020000,1771684928340000,47.3977419,8.5455939,0.01923817,-0.02860948,0.0007019043,0.004007112,-0.0025302004,-487.9847,0.010617663,-0.018810978,-0.035860647,-0.06404235,-0.00090424286,0.00046052953,-0.0002578646,-0.033710863,-0.034816496,-0.0033630056,0.018993152,0.00032192495,0.00019293604,0.016992038,1.8621791e-05,487.9847,0.1000061,0.010000001,-487.9847,0.12090506,0.11331527,0.08075194,0.04938221,inf,inf,inf,inf,inf,160,1,1,1,1,3,3,2,1,5,1,1,1,0,3,0,0
1771685524028000,1771685524028000,1771685524028000,1771684928340000,47.3977419,8.5455939,0.019218517,-0.02862729,0.00045776367,0.004007112,-0.0025302004,-487.9847,0.01046576,-0.019232614,-0.03608712,-0.06404615,-0.00090424286,0.00046052953,-0.0002578646,-0.010531229,-0.06483764,-0.032662876,0.018990897,0.00032204264,0.0001876126,0.016992038,1.866615e-05,487.9847,0.1000061,0.010000001,-487.9847,0.12131418,0.113566674,0.08105254,0.049464874,inf,inf,inf,inf,inf,160,1,1,1,1,3,3,2,1,5,1,1,1,0,3,0,0
1771685524036000,1771685524036000,1771685524036000,1771684928340000,47.3977419,8.5455939,0.0191996,-0.02865129,0.00024414062,0.004007112,-0.0025302004,-487.9847,0.010332911,-0.01948094,-0.03630452,-0.06404008,-0.00090424286,0.00046052953,-0.0002578646,-0.008201683,-0.04283112,-0.031489875,0.01903128,0.00032130012,0.00022492511,0.016992038,1.8699475e-05,487.9847,0.1000061,0.010000001,-487.9847,0.12172368,0.11381891,0.08134447,0.049547415,inf,inf,inf,inf,inf,160,1,1,1,1,3,3,2,1,5,1,1,1,0,3,0,0
1771685524044000,1771685524044000,1771685524044000,1771684928340000,47.3977419,8.5455939,0.019181333,-0.028678745,3.0517578e-05,0.004007112,-0.0025302004,-487.9847,0.010182691,-0.019442156,-0.03612509,-0.06363639,-0.00090424286,0.00046052953,-0.0002578646,-0.010609024,-0.0066122436,0.01815101,0.019093025,0.00032141755,0.00028356863,0.016992038,1.87439e-05,487.9847,0.1000061,0.010000001,-487.9847,0.122138284,0.11407199,0.0816458,0.049629826,inf,inf,inf,inf,inf,160,1,1,1,1,3,3,2,1,5,1,1,1,0,3,0,0
1771685524052000,1771685524052000,1771685524052000,1771684928340000,47.3977419,8.5455939,0.019151611,-0.028678384,-0.00018310547,0.004007112,-0.0025302004,-487.9847,0.010348116,-0.019226681,-0.0361141,-0.06340779,-0.00090424286,0.00046052953,-0.0002578646,0.03020526,0.013016742,-0.0034295951,0.019056816,0.00032151103,0.00024424633,0.016992038,1.850758e-05,487.9847,0.1000061,0.010000001,-487.9847,0.119890176,0.11274767,0.07999598,0.0491843,inf,inf,inf,inf,inf,160,1,1,1,1,3,3,2,1,5,1,1,1,0,3,0,0
1771685524060000,1771685524060000,1771685524060000,1771684928340000,47.3977419,8.5455939,0.019124417,-0.02868087,-0.0004272461,0.004007112,-0.0025302004,-487.9847,0.01029877,-0.019394279,-0.036179673,-0.06325489,-0.00090424286,0.00046052953,-0.0002578646,0.0030953542,-0.034484424,-0.012947711,0.019090028,0.00032162855,0.00027412688,0.016992038,1.8551842e-05,487.9847,0.1000061,0.010000001,-487.9847,0.12029238,0.11299711,0.08029504,0.049267273,inf,inf,inf,inf,inf,160,1,1,1,1,3,3,2,1,5,1,1,1,0,3,0,0
1771685524068000,1771685524068000,1771685524068000,1771684928340000,47.3977419,8.5455939,0.01909993,-0.028689314,-0.00064086914,0.004007112,-0.0025302004,-487.9847,0.010265122,-0.019733159,-0.03648967,-0.06334564,-0.00090424286,0.00046052953,-0.0002578646,0.0048057223,-0.055525016,-0.043449454,0.0190944,0.0003217461,0.00027524075,0.016992038,1.859614e-05,487.9847,0.1000061,0.010000001,-487.9847,0.12069732,0.11324738,0.08059509,0.049350116,inf,inf,inf,inf,inf,160,1,1,1,1,3,3,2,1,5,1,1,1,0,3,0,0
1771685524076000,1771685524076000,1771685524076000,1771684928340000,47.3977419,8.5455939,0.019076953,-0.028702905,-0.0008544922,0.004007112,-0.0025302004,-487.9847,0.010110643,-0.019917363,-0.036420703,-0.06305267,-0.00090424286,0.00046052953,-0.0002578646,-0.010547389,-0.035831947,0.0038170253,0.019138092,0.00032186368,0.00031574396,0.016992038,1.8640478e-05,487.9847,0.1000061,0.010000001,-487.9847,0.12110501,0.11343936,0.08089553,0.049422413,inf,inf,inf,inf,inf,160,1,1,1,1,3,3,2,1,5,1,1,1,0,3,0,0
1771685524084000,1771685524084000,1771685524084000,1771684928340000,47.3977419,8.5455939,0.019054959,-0.028721223,-0.0010681152,0.004007112,-0.0025302004,-487.9847,0.009936768,-0.02004181,-0.036428828,-0.06283725,-0.00090424286,0.00046052953,-0.0002578646,-0.013217222,-0.028010674,-0.0057662833,0.019169929,0.00032198132,0.00034446036,0.016992038,1.8684852e-05,487.9847,0.1000061,0.010000001,-487.9847,0.12151546,0.113691166,0.08119526,0.049505018,inf,inf,inf,inf,inf,160,1,1,1,1,3,3,2,1,5,1,1,1,0,3,0,0
1771685524092000,1771685524092000,1771685524092000,1771684928340000,47.3977419,8.5455939,0.019033771,-0.028743112,-0.0012817383,0.004007112,-0.0025302004,-487.9847,0.009655031,-0.020016212,-0.03640397,-0.062588416,-0.00090424286,0.00046052953,-0.0002578646,-0.026935866,-0.008912844,-0.0015916302,0.019150643,0.00032209905,0.00032212725,0.016992038,1.8729268e-05,487.9847,0.1000061,0.010000001,-487.9847,0.12192868,0.113943815,0.081495546,0.0495875,inf,inf,inf,inf,inf,160,1,1,1,1,3,3,2,1,5,1,1,1,0,3,0,0
1771685524100000,1771685524100000,1771685524100000,1771684928340000,47.3977419,8.5455939,0.018999381,-0.028736532,-0.0014953613,0.004007112,-0.0025302004,-487.9847,0.009424657,-0.019794935,-0.036159843,-0.06212739,-0.00090424286,0.00046052953,-0.0002578646,-0.01928447,0.013032156,0.025317537,0.01916,0.00032133292,0.0003285124,0.016992038,1.8484034e-05,487.9847,0.1000061,0.010000001,-487.9847,0.11969324,0.112624615,0.07984745,0.049143855,inf,inf,inf,inf,inf,160,1,1,1,1,3,3,2,1,5,1,1,1,0,3,0,0
1771685524108000,1771685524108000,1771685524108000,1771684928340000,47.3977419,8.5455939,0.018966202,-0.028735654,-0.0017089844,0.004007112,-0.0025302004,-487.9847,0.009282612,-0.020416832,-0.036303267,-0.062053517,-0.00090424286,0.00046052953,-0.0002578646,-0.00851019,-0.09196257,-0.023060942,0.019175932,0.00032145032,0.00034133112,0.016992038,1.8528275e-05,487.9847,0.1000061,0.010000001,-487.9847,0.1200941,0.11287364,0.08014621,0.04922689,inf,inf,inf,inf,inf,160,1,1,1,1,3,3,2,1,5,1,1,1,0,3,0,0
1771685524116000,1771685524116000,1771685524116000,1771684928340000,47.3977419,8.5455939,0.018935464,-0.028741347,-0.0019226074,0.004007112,-0.0025302004,-487.9847,0.009459957,-0.02054267,-0.0366585,-0.062191162,-0.00090424286,0.00046052953,-0.0002578646,0.031147776,-0.02956725,-0.049472783,0.019182222,0.0003215678,0.00034458144,0.016992038,1.8572555e-05,487.9847,0.1000061,0.010000001,-487.9847,0.12049769,0.11312351,0.08044583,0.049309798,inf,inf,inf,inf,inf,160,1,1,1,1,3,3,2,1,5,1,1,1,0,3,0,0
1771685524124000,1771685524124000,1771685524124000,1771684928340000,47.3977419,8.5455939,0.018907439,-0.028752334,-0.002105713,0.004007112,-0.0025302004,-487.9847,0.00918042,-0.02087152,-0.03668256,-0.06199437,-0.00090424286,0.00046052953,-0.0002578646,-0.026214583,-0.054565195,-0.008129514,0.019224668,0.00032168528,0.0003840658,0.016992038,1.8616873e-05,487.9847,0.1000061,0.010000001,-487.9847,0.12090403,0.11331527,0.08074648,0.049382202,inf,inf,inf,inf,inf,160,1,1,1,1,3,3,2,1,5,1,1,1,0,3,0,0
1771685524132000,1771685524132000,1771685524132000,1771684928340000,47.3977419,8.5455939,0.018878574,-0.028770372,-0.002319336,0.004007112,-0.0025302004,-487.9847,0.008832028,-0.02143762,-0.03625197,-0.06134283,-0.00090424286,0.00046052953,-0.0002578646,-0.03506249,-0.08385884,0.048766375,0.01920959,0.00032180274,0.00036607077,0.016992038,1.8661223e-05,487.9847,0.1000061,0.010000001,-487.9847,0.121313125,0.113566674,0.08104649,0.049464874,inf,inf,inf,inf,inf,160,1,1,1,1,3,3,2,1,5,1,1,1,0,3,0,0
1771685524140000,1771685524140000,1771685524140000,1771684928340000,47.3977419,8.5455939,0.018850798,-0.028796144,-0.002532959,0.004007112,-0.0025302004,-487.9847,0.008830532,-0.02190408,-0.035941787,-0.0608117,-0.00090424286,0.00046052953,-0.0002578646,0.008067994,-0.071044296,0.033778135,0.019164486,0.00032192032,0.00031809462,0.016992038,1.8705614e-05,487.9847,0.1000061,0.010000001,-487.9847,0.12172499,0.11381891,0.08134663,0.049547415,inf,inf,inf,inf,inf,160,1,1,1,1,3,3,2,1,5,1,1,1,0,3,0,0
1771685524148000,1771685524148000,1771685524148000,1771684928340000,47.3977419,8.5455939,0.018825727,-0.02882752,-0.0027160645,0.004007112,-0.0025302004,-487.9847,0.008892421,-0.022000534,-0.035938956,-0.06058805,-0.00090424286,0.00046052953,-0.0002578646,0.015761187,-0.024443688,-0.0045797783,0.019164149,0.0003220379,0.00031494303,0.016992038,1.875004e-05,487.9847,0.1000061,0.010000001,-487.9847,0.12213961,0.11407199,0.08164621,0.049629834,inf,inf,inf,inf,inf,160,1,1,1,1,3,3,2,1,5,1,1,1,0,3,0,0
1771685524156000,1771685524156000,1771685524156000,1771684928340000,47.3977419,8.5455939,0.018789062,-0.028847147,-0.0029296875,0.004007112,-0.0025302004,-487.9847,0.008694451,-0.0223436,-0.036104273,-0.060539234,-0.00090424286,0.00046052953,-0.0002578646,-0.015478647,-0.057060674,-0.02608448,0.01916921,0.00032213234,0.0003172434,0.016992038,1.851363e-05,487.9847,0.1000061,0.010000001,-487.9847,0.119891405,0.11274767,0.07999587,0.0491843,inf,inf,inf,inf,inf,160,1,1,1,1,3,3,2,1,5,1,1,1,0,3,0,0
1771685524164000,1771685524164000,1771685524164000,1771684928340000,47.3977419,8.5455939,0.018752418,-0.02887451,-0.003112793,0.004007112,-0.0025302004,-487.9847,0.008415561,-0.02294588,-0.035992164,-0.06021308,-0.00090424286,0.00046052953,-0.0002578646,-0.025853882,-0.089073956,0.008668284,0.019221215,0.00032225004,0.0003663781,0.016992038,1.8557897e-05,487.9847,0.1000061,0.010000001,-487.9847,0.12029361,0.11299711,0.080296226,0.049267273,inf,inf,inf,inf,inf,160,1,1,1,1,3,3,2,1,5,1,1,1,0,3,0,0
1771685524172000,1771685524172000,1771685524172000,1771684928340000,47.3977419,8.5455939,0.018718638,-0.02890591,-0.003326416,0.004007112,-0.0025302004,-487.9847,0.008634438,-0.02312669,-0.035948172,-0.059955146,-0.00090424286,0.00046052953,-0.0002578646,0.036014754,-0.03657223,0.00022631137,0.019237893,0.00032150606,0.00038024178,0.016992038,1.8591258e-05,487.9847,0.1000061,0.010000001,-487.9847,0.120696306,0.11324738,0.08058678,0.049350116,inf,inf,inf,inf,inf,160,1,1,1,1,3,3,2,1,5,1,1,1,0,3,0,0
1771685524180000,1771685524180000,1771685524180000,1771684928340000,47.3977419,8.5455939,0.018689144,-0.028941443,-0.0035095215,0.004007112,-0.0025302004,-487.9847,0.008838722,-0.023150409,-0.03561185,-0.059400994,-0.00090424286,0.00046052953,-0.0002578646,0.033945695,-0.01655976,0.036716457,0.0192606,0.00032162352,0.0004047989,0.016992038,1.863559e-05,487.9847,0.1000061,0.010000001,-487.9847,0.121103965,0.11343936,0.080887385,0.04942242,inf,inf,inf,inf,inf,160,1,1,1,1,3,3,2,1,5,1,1,1,0,3,0,0
1771685524188000,1771685524188000,1771685524188000,1771684928340000,47.3977419,8.5455939,0.018662496,-0.02898141,-0.003692627,0.004007112,-0.0025302004,-487.9847,0.008727318,-0.023458635,-0.035826415,-0.059397988,-0.00090424286,0.00046052953,-0.0002578646,-0.005751867,-0.051752463,-0.032072417,0.019288538,0.0003217409,0.00043464964,0.016992038,1.8679953e-05,487.9847,0.1000061,0.010000001,-487.9847,0.12151437,0.113691166,0.081188254,0.049505025,inf,inf,inf,inf,inf,160,1,1,1,1,3,3,2,1,5,1,1,1,0,3,0,0
1771685524196000,1771685524196000,1771685524196000,1771684928340000,47.3977419,8.5455939,0.018637143,-0.029025592,-0.0038757324,0.004007112,-0.0025302004,-487.9847,0.008707669,-0.023283614,-0.035754815,-0.059109107,-0.00090424286,0.00046052953,-0.0002578646,0.0054888246,0.0090132095,0.0037690622,0.019324984,0.00032185842,0.00047307974,0.016992038,1.8724362e-05,487.9847,0.1000061,0.010000001,-487.9847,0.12192756,0.113943815,0.081488356,0.049587507,inf,inf,inf,inf,inf,160,1,1,1,1,3,3,2,1,5,1,1,1,0,3,0,0
1771685524204000,1771685524204000,1771685524204000,1771684928340000,47.3977419,8.5455939,0.018601147,-0.029048277,-0.0040893555,0.004007112,-0.0025302004,-487.9847,0.0085746385,-0.023391012,-0.035449285,-0.058594055,-0.00090424286,0.00046052953,-0.0002578646,-0.0075431303,-0.028500585,0.032544132,0.019359222,0.00032195286,0.0005093771,0.016992038,1.8490124e-05,487.9847,0.1000061,0.010000001,-487.9847,0.119694404,0.112624615,0.07985054,0.049143862,inf,inf,inf,inf,inf,160,1,1,1,1,3,3,2,1,5,1,1,1,0,3,0,0
1771685524212000,1771685524212000,1771685524212000,1771684928340000,47.3977419,8.5455939,0.018566463,-0.029075863,-0.004272461,0.004007112,-0.0025302004,-487.9847,0.0086643975,-0.023540668,-0.03545559,-0.05839099,-0.00090424286,0.00046052953,-0.0002578646,0.020145305,-0.033448726,-0.006352085,0.019369094,0.00032188554,0.00052118255,0.016992038,1.8532282e-05,487.9847,0.1000061,0.010000001,-487.9847,0.1200949,0.11287364,0.08014844,0.0492269,inf,inf,inf,inf,inf,160,1,1,1,1,3,3,2,1,5,1,1,1,0,3,0,0
1771685524220000,1771685524220000,1771685524220000,1771684928340000,47.3977419,8.5455939,0.01853626,-0.029107193,-0.0044555664,0.004007112,-0.0025302004,-487.9847,0.009014213,-0.023508001,-0.03556327,-0.058289453,-0.00090424286,0.00046052953,-0.0002578646,0.052404217,-0.010257394,-0.01894403,0.019280197,0.00032200303,0.00043493276,0.016992038,1.857656e-05,487.9847,0.1000061,0.010000001,-487.9847,0.120498516,0.11312351,0.08044896,0.049309805,inf,inf,inf,inf,inf,160,1,1,1,1,3,3,2,1,5,1,1,1,0,3,0,0
1771685524228000,1771685524228000,1771685524228000,1771684928340000,47.3977419,8.5455939,0.018510314,-0.02914137,-0.004638672,0.004007112,-0.0025302004,-487.9847,0.009045635,-0.0232766,-0.03553704,-0.05805116,-0.00090424286,0.00046052953,-0.0002578646,0.012361354,0.014977555,-0.0022216698,0.019216748,0.00032212056,0.00037419936,0.016992038,1.8620874e-05,487.9847,0.1000061,0.010000001,-487.9847,0.12090488,0.11331527,0.08074873,0.049382214,inf,inf,inf,inf,inf,160,1,1,1,1,3,3,2,1,5,1,1,1,0,3,0,0
1771685524236000,1771685524236000,1771685524236000,1771684928340000,47.3977419,8.5455939,0.018485934,-0.029175678,-0.0048217773,0.004007112,-0.0025302004,-487.9847,0.009133388,-0.022948086,-0.035664782,-0.057967164,-0.00090424286,0.00046052953,-0.0002578646,0.019260997,0.027369946,-0.021388287,0.019221405,0.00032137768,0.0003816518,0.016992038,1.8654206e-05,487.9847,0.1000061,0.010000001,-487.9847,0.12131165,0.113566674,0.081039675,0.049464878,inf,inf,inf,inf,inf,160,1,1,1,1,3,3,2,1,5,1,1,1,0,3,0,0
1771685524244000,1771685524244000,1771685524244000,1771684928340000,47.3977419,8.5455939,0.018465737,-0.029211422,-0.005004883,0.004007112,-0.0025302004,-487.9847,0.009377155,-0.022746237,-0.03584565,-0.057936653,-0.00090424286,0.00046052953,-0.0002578646,0.038530458,0.0119119035,-0.027951783,0.01921212,0.00032149497,0.00037629297,0.016992038,1.8698585e-05,487.9847,0.1000061,0.010000001,-487.9847,0.12172347,0.11381891,0.081339955,0.049547415,inf,inf,inf,inf,inf,160,1,1,1,1,3,3,2,1,5,1,1,1,0,3,0,0
1771685524252000,1771685524252000,1771685524252000,1771684928340000,47.3977419,8.5455939,0.018449016,-0.029248858,-0.0051879883,0.004007112,-0.0025302004,-487.9847,0.009488989,-0.022581294,-0.036218658,-0.058098722,-0.00090424286,0.00046052953,-0.0002578646,0.02180933,0.0076644677,-0.051894687,0.019184679,0.00032161232,0.00035284972,0.016992038,1.8743001e-05,487.9847,0.1000061,0.010000001,-487.9847,0.12213806,0.11407199,0.08163998,0.04962983,inf,inf,inf,inf,inf,160,1,1,1,1,3,3,2,1,5,1,1,1,0,3,0,0
1771685524260000,1771685524260000,1771685524260000,1771684928340000,47.3977419,8.5455939,0.018413067,-0.029270193,-0.0054016113,0.004007112,-0.0025302004,-487.9847,0.009525742,-0.02248441,-0.0361026,-0.057773583,-0.00090424286,0.00046052953,-0.0002578646,0.013965798,-0.002875084,0.008572358,0.019157121,0.00032170667,0.00032935617,0.016992038,1.8506782e-05,487.9847,0.1000061,0.010000001,-487.9847,0.119890034,0.11274767,0.079990715,0.0491843,inf,inf,inf,inf,inf,160,1,1,1,1,3,3,2,1,5,1,1,1,0,3,0,0
1771685524268000,1771685524268000,1771685524268000,1771684928340000,47.3977419,8.5455939,0.018379126,-0.029294146,-0.005584717,0.004007112,-0.0025302004,-487.9847,0.009278555,-0.022321302,-0.035824586,-0.057286922,-0.00090424286,0.00046052953,-0.0002578646,-0.021786144,0.005811598,0.028910113,0.019066872,0.00032182407,0.00024304865,0.016992038,1.8551036e-05,487.9847,0.1000061,0.010000001,-487.9847,0.12029221,0.11299711,0.080291286,0.049267273,inf,inf,inf,inf,inf,160,1,1,1,1,3,3,2,1,5,1,1,1,0,3,0,0
1771685524276000,1771685524276000,1771685524276000,1771684928340000,47.3977419,8.5455939,0.01834557,-0.029319601,-0.0057678223,0.004007112,-0.0025302004,-487.9847,0.009032417,-0.022064876,-0.035695873,-0.056949984,-0.00090424286,0.00046052953,-0.0002578646,-0.021906085,0.017872319,0.010338145,0.019020377,0.00032194154,0.00020056544,0.016992038,1.859533e-05,487.9847,0.1000061,0.010000001,-487.9847,0.12069713,0.11324738,0.08059107,0.049350116,inf,inf,inf,inf,inf,160,1,1,1,1,3,3,2,1,5,1,1,1,0,3,0,0
1771685524284000,1771685524284000,1771685524284000,1771684928340000,47.3977419,8.5455939,0.01831211,-0.029348658,-0.00592041,0.004007112,-0.0025302004,-487.9847,0.008582743,-0.022342864,-0.035355754,-0.056399137,-0.00090424286,0.00046052953,-0.0002578646,-0.047589082,-0.048544895,0.03675045,0.019004704,0.0003220591,0.00018897792,0.016992038,1.8639665e-05,487.9847,0.1000061,0.010000001,-487.9847,0.12110481,0.11343936,0.080889925,0.04942242,inf,inf,inf,inf,inf,160,1,1,1,1,3,3,2,1,5,1,1,1,0,3,0,0
1771685524292000,1771685524292000,1771685524292000,1771684928340000,47.3977419,8.5455939,0.018277211,-0.029382939,-0.0061035156,0.004007112,-0.0025302004,-487.9847,0.008129561,-0.022538904,-0.035160135,-0.05599353,-0.00090424286,0.00046052953,-0.0002578646,-0.048273947,-0.03792437,0.018777324,0.018896246,0.0003221766,8.4677245e-05,0.016992038,1.8684033e-05,487.9847,0.1000061,0.010000001,-487.9847,0.12151524,0.113691166,0.08118955,0.049505025,inf,inf,inf,inf,inf,160,1,1,1,1,3,3,2,1,5,1,1,1,0,3,0,0
1771685524300000,1771685524300000,1771685524300000,1771684928340000,47.3977419,8.5455939,0.018242192,-0.029421508,-0.0062561035,0.004007112,-0.0025302004,-487.9847,0.0079946015,-0.022567099,-0.035338838,-0.055963047,-0.00090424286,0.00046052953,-0.0002578646,-0.008729721,-0.016578378,-0.027925706,0.018933602,0.00032229413,0.00012624962,0.016992038,1.8728435e-05,487.9847,0.1000061,0.010000001,-487.9847,0.12192843,0.113943815,0.08149026,0.049587507,inf,inf,inf,inf,inf,160,1,1,1,1,3,3,2,1,5,1,1,1,0,3,0,0
1771685524308000,1771685524308000,1771685524308000,1771684928340000,47.3977419,8.5455939,0.018198255,-0.029449038,-0.006439209,0.004007112,-0.0025302004,-487.9847,0.00782248,-0.022390675,-0.035619695,-0.056043915,-0.00090424286,0.00046052953,-0.0002578646,-0.012494553,0.007073472,-0.041124873,0.01898262,0.00032152768,0.0001795399,0.016992038,1.8483275e-05,487.9847,0.1000061,0.010000001,-487.9847,0.119693056,0.112624615,0.0798437,0.04914386,inf,inf,inf,inf,inf,160,1,1,1,1,3,3,2,1,5,1,1,1,0,3,0,0
1771685524316000,1771685524316000,1771685524316000,1771684928340000,47.3977419,8.5455939,0.018155525,-0.02947813,-0.0066223145,0.004007112,-0.0025302004,-487.9847,0.0077515845,-0.022165148,-0.035259694,-0.05548447,-0.00090424286,0.00046052953,-0.0002578646,-8.582765e-05,0.013619328,0.03907969,0.019031938,0.000321645,0.00023277802,0.016992038,1.8527511e-05,487.9847,0.1000061,0.010000001,-487.9847,0.1200939,0.11287364,0.080142714,0.049226895,inf,inf,inf,inf,inf,160,1,1,1,1,3,3,2,1,5,1,1,1,0,3,0,0
1771685524324000,1771685524324000,1771685524324000,1771684928340000,47.3977419,8.5455939,0.01811559,-0.029509753,-0.00680542,0.004007112,-0.0025302004,-487.9847,0.007849729,-0.022199001,-0.03531187,-0.05533779,-0.00090424286,0.00046052953,-0.0002578646,0.020797519,-0.018407805,-0.012347474,0.018991616,0.00032176235,0.00019644527,0.016992038,1.8571784e-05,487.9847,0.1000061,0.010000001,-487.9847,0.12049747,0.11312351,0.080442406,0.049309805,inf,inf,inf,inf,inf,160,1,1,1,1,3,3,2,1,5,1,1,1,0,3,0,0
1771685524332000,1771685524332000,1771685524332000,1771684928340000,47.3977419,8.5455939,0.01807833,-0.029544795,-0.0069885254,0.004007112,-0.0025302004,-487.9847,0.0077693067,-0.022166615,-0.035565227,-0.05538995,-0.00090424286,0.00046052953,-0.0002578646,-0.0017583283,-0.009743098,-0.037505288,0.01898224,0.00032187975,0.00019112742,0.016992038,1.8616094e-05,487.9847,0.1000061,0.010000001,-487.9847,0.1209038,0.11331527,0.080741614,0.049382217,inf,inf,inf,inf,inf,160,1,1,1,1,3,3,2,1,5,1,1,1,0,3,0,0
1771685524340000,1771685524340000,1771685524340000,1771684928340000,47.3977419,8.5455939,0.018042134,-0.029581903,-0.0071411133,0.004007112,-0.0025302004,-487.9847,0.007585984,-0.021934299,-0.03582919,-0.05545352,-0.00090424286,0.00046052953,-0.0002578646,-0.014851525,0.015624716,-0.038737893,0.018986829,0.0003219972,0.00019970862,0.016992038,1.8660445e-05,487.9847,0.1000061,0.010000001,-487.9847,0.12131287,0.113566674,0.08104238,0.04946489,inf,inf,inf,inf,inf,160,1,1,1,1,3,3,2,1,5,1,1,1,0,3,0,0
1771685524348000,1771685524348000,1771685524348000,1771684928340000,47.3977419,8.5455939,0.018006897,-0.029619746,-0.0073242188,0.004007112,-0.0025302004,-487.9847,0.0073836846,-0.021552479,-0.03583069,-0.05525544,-0.00090424286,0.00046052953,-0.0002578646,-0.017444536,0.034679838,-0.005839392,0.018948711,0.0003221147,0.00016552722,0.016992038,1.870483e-05,487.9847,0.1000061,0.010000001,-487.9847,0.12172472,0.11381891,0.08134271,0.04954743,inf,inf,inf,inf,inf,160,1,1,1,1,3,3,2,1,5,1,1,1,0,3,0,0
1771685524356000,1771685524356000,1771685524356000,1771684928340000,47.3977419,8.5455939,0.017973002,-0.02965705,-0.007507324,0.004007112,-0.0025302004,-487.9847,0.007356361,-0.021156283,-0.03559824,-0.05482428,-0.00090424286,0.00046052953,-0.0002578646,0.004212086,0.036833297,0.02349261,0.018920306,0.00032223217,0.0001409906,0.016992038,1.8749251e-05,487.9847,0.1000061,0.010000001,-487.9847,0.12213933,0.11407199,0.08164269,0.04962984,inf,inf,inf,inf,inf,160,1,1,1,1,3,3,2,1,5,1,1,1,0,3,0,0
1771685524364000,1771685524364000,1771685524364000,1771684928340000,47.3977419,8.5455939,0.017929332,-0.029673312,-0.0076904297,0.004007112,-0.0025302004,-487.9847,0.0070920563,-0.021180522,-0.03575819,-0.05478985,-0.00090424286,0.00046052953,-0.0002578646,-0.02448616,-0.0182719,-0.026126856,0.01891004,0.00032232705,0.0001345328,0.016992038,1.8512881e-05,487.9847,0.1000061,0.010000001,-487.9847,0.11989118,0.11274767,0.07999305,0.049184315,inf,inf,inf,inf,inf,160,1,1,1,1,3,3,2,1,5,1,1,1,0,3,0,0
1771685524372000,1771685524372000,1771685524372000,1771684928340000,47.3977419,8.5455939,0.01788613,-0.02969396,-0.007843018,0.004007112,-0.0025302004,-487.9847,0.006944431,-0.021408616,-0.0356984,-0.05453651,-0.00090424286,0.00046052953,-0.0002578646,-0.010096965,-0.043282814,0.0014430842,0.018907644,0.0003215829,0.00013566343,0.016992038,1.854625e-05,487.9847,0.1000061,0.010000001,-487.9847,0.120291166,0.11299711,0.08028404,0.04926729,inf,inf,inf,inf,inf,160,1,1,1,1,3,3,2,1,5,1,1,1,0,3,0,0
1771685524380000,1771685524380000,1771685524380000,1771684928340000,47.3977419,8.5455939,0.017845137,-0.029720886,-0.008026123,0.004007112,-0.0025302004,-487.9847,0.0070030284,-0.021790203,-0.035370994,-0.054016396,-0.00090424286,0.00046052953,-0.0002578646,0.015446547,-0.06206649,0.034994908,0.018852549,0.0003217002,8.353917e-05,0.016992038,1.8590541e-05,487.9847,0.1000061,0.010000001,-487.9847,0.12069606,0.11324738,0.08058377,0.04935013,inf,inf,inf,inf,inf,160,1,1,1,1,3,3,2,1,5,1,1,1,0,3,0,0
1771685524388000,1771685524388000,1771685524388000,1771684928340000,47.3977419,8.5455939,0.017806996,-0.029753255,-0.008178711,0.004007112,-0.0025302004,-487.9847,0.007112191,-0.02201527,-0.0350764,-0.053523913,-0.00090424286,0.00046052953,-0.0002578646,0.02153928,-0.042105097,0.0307844,0.018867843,0.00032181756,0.000101724174,0.016992038,1.863487e-05,487.9847,0.1000061,0.010000001,-487.9847,0.1211037,0.11343936,0.08088422,0.049422428,inf,inf,inf,inf,inf,160,1,1,1,1,3,3,2,1,5,1,1,1,0,3,0,0
1771685524396000,1771685524396000,1771685524396000,1771684928340000,47.3977419,8.5455939,0.017772859,-0.029789459,-0.008361816,0.004007112,-0.0025302004,-487.9847,0.007437635,-0.021928657,-0.034615375,-0.052866038,-0.00090424286,0.00046052953,-0.0002578646,0.048351776,-0.0027647978,0.051688865,0.018878872,0.00032193484,0.00011555804,0.016992038,1.8679228e-05,487.9847,0.1000061,0.010000001,-487.9847,0.1215141,0.113691166,0.08118517,0.049505036,inf,inf,inf,inf,inf,160,1,1,1,1,3,3,2,1,5,1,1,1,0,3,0,0
1771685524404000,1771685524404000,1771685524404000,1771684928340000,47.3977419,8.5455939,0.017743366,-0.02982746,-0.008514404,0.004007112,-0.0025302004,-487.9847,0.007683061,-0.021748949,-0.03462455,-0.052679334,-0.00090424286,0.00046052953,-0.0002578646,0.038134057,0.00923803,-0.006987713,0.018902838,0.00032205228,0.00014221063,0.016992038,1.872363e-05,487.9847,0.1000061,0.010000001,-487.9847,0.12192726,0.113943815,0.08148684,0.049587514,inf,inf,inf,inf,inf,160,1,1,1,1,3,3,2,1,5,1,1,1,0,3,0,0
1771685524412000,1771685524412000,1771685524412000,1771684928340000,47.3977419,8.5455939,0.017714921,-0.02983828,-0.008666992,0.004007112,-0.0025302004,-487.9847,0.0076995594,-0.02160051,-0.034517433,-0.05237467,-0.00090424286,0.00046052953,-0.0002578646,0.0102009745,0.002435104,0.0067749056,0.01890977,0.00032196235,0.0001517064,0.016992038,1.848735e-05,487.9847,0.1000061,0.010000001,-487.9847,0.119693786,0.112624615,0.079847135,0.04914387,inf,inf,inf,inf,inf,160,1,1,1,1,3,3,2,1,5,1,1,1,0,3,0,0
1771685524420000,1771685524420000,1771685524420000,1771684928340000,47.3977419,8.5455939,0.01768872,-0.02985239,-0.00881958,0.004007112,-0.0025302004,-487.9847,0.007795663,-0.021781074,-0.034750726,-0.05241156,-0.00090424286,0.00046052953,-0.0002578646,0.01992388,-0.038245,-0.03565801,0.018944683,0.0003220797,0.00018901331,0.016992038,1.853158e-05,487.9847,0.1000061,0.010000001,-487.9847,0.12009464,0.11287364,0.08014575,0.049226902,inf,inf,inf,inf,inf,160,1,1,1,1,3,3,2,1,5,1,1,1,0,3,0,0
1771685524428000,1771685524428000,1771685524428000,1771684928340000,47.3977419,8.5455939,0.01766513,-0.0298723,-0.008972168,0.004007112,-0.0025302004,-487.9847,0.0077260933,-0.022141049,-0.03470224,-0.052167874,-0.00090424286,0.00046052953,-0.0002578646,-0.0009977729,-0.0602433,-0.00032037494,0.01887425,0.0003221971,0.00012085913,0.016992038,1.857585e-05,487.9847,0.1000061,0.010000001,-487.9847,0.12049824,0.11312351,0.080445014,0.04930981,inf,inf,inf,inf,inf,160,1,1,1,1,3,3,2,1,5,1,1,1,0,3,0,0
1771685524436000,1771685524436000,1771685524436000,1771684928340000,47.3977419,8.5455939,0.017641753,-0.029900208,-0.009124756,0.004007112,-0.0025302004,-487.9847,0.0074434285,-0.022857375,-0.03492126,-0.052188933,-0.00090424286,0.00046052953,-0.0002578646,-0.027841756,-0.10436927,-0.033797693,0.01887844,0.00032231456,0.00012720702,0.016992038,1.8620161e-05,487.9847,0.1000061,0.010000001,-487.9847,0.12090458,0.11331527,0.08074393,0.049382217,inf,inf,inf,inf,inf,160,1,1,1,1,3,3,2,1,5,1,1,1,0,3,0,0
1771685524444000,1771685524444000,1771685524444000,1771684928340000,47.3977419,8.5455939,0.017618932,-0.029934598,-0.009277344,0.004007112,-0.0025302004,-487.9847,0.007137433,-0.022960043,-0.03481157,-0.05188277,-0.00090424286,0.00046052953,-0.0002578646,-0.031056492,-0.02737318,0.007404014,0.018868878,0.00032157078,0.000119689386,0.016992038,1.8653482e-05,487.9847,0.1000061,0.010000001,-487.9847,0.12131133,0.113566674,0.081034206,0.04946488,inf,inf,inf,inf,inf,160,1,1,1,1,3,3,2,1,5,1,1,1,0,3,0,0
1771685524452000,1771685524452000,1771685524452000,1771684928340000,47.3977419,8.5455939,0.017595509,-0.029972473,-0.009429932,0.004007112,-0.0025302004,-487.9847,0.0069347066,-0.023072451,-0.034683585,-0.05155978,-0.00090424286,0.00046052953,-0.0002578646,-0.018347997,-0.02818872,0.009802169,0.01887981,0.00032168798,0.00013345806,0.016992038,1.8697854e-05,487.9847,0.1000061,0.010000001,-487.9847,0.12172313,0.11381891,0.08133508,0.049547423,inf,inf,inf,inf,inf,160,1,1,1,1,3,3,2,1,5,1,1,1,0,3,0,0
1771685524460000,1771685524460000,1771685524460000,1771684928340000,47.3977419,8.5455939,0.017573878,-0.0300154,-0.0095825195,0.004007112,-0.0025302004,-487.9847,0.007052537,-0.023298973,-0.03466638,-0.05134898,-0.00090424286,0.00046052953,-0.0002578646,0.021526806,-0.04206143,-0.003938097,0.018864373,0.00032180522,0.000120723154,0.016992038,1.8742267e-05,487.9847,0.1000061,0.010000001,-487.9847,0.122137696,0.11407199,0.0816365,0.049629834,inf,inf,inf,inf,inf,160,1,1,1,1,3,3,2,1,5,1,1,1,0,3,0,0
1771685524468000,1771685524468000,1771685524468000,1771684928340000,47.3977419,8.5455939,0.017545529,-0.030026933,-0.009735107,0.004007112,-0.0025302004,-487.9847,0.007347641,-0.023281584,-0.03457188,-0.051060684,-0.00090424286,0.00046052953,-0.0002578646,0.044556417,-0.014604513,0.0050137746,0.018773353,0.00032189983,3.2288488e-05,0.016992038,1.8506118e-05,487.9847,0.1000061,0.010000001,-487.9847,0.11988976,0.11274767,0.07998621,0.0491843,inf,inf,inf,inf,inf,160,1,1,1,1,3,3,2,1,5,1,1,1,0,3,0,0
1771685524476000,1771685524476000,1771685524476000,1771684928340000,47.3977419,8.5455939,0.017520022,-0.030043297,-0.009887695,0.004007112,-0.0025302004,-487.9847,0.007230275,-0.023467563,-0.034588374,-0.05088493,-0.00090424286,0.00046052953,-0.0002578646,-0.0072242767,-0.03956629,-0.008735339,0.018767932,0.00032201715,2.9075425e-05,0.016992038,1.8550367e-05,487.9847,0.1000061,0.010000001,-487.9847,0.12029192,0.1129971,0.08028595,0.049267273,inf,inf,inf,inf,inf,160,1,1,1,1,3,3,2,1,5,1,1,1,0,3,0,0
1771685524484000,1771685524484000,1771685524484000,1771684928340000,47.3977419,8.5455939,0.017495453,-0.030066013,-0.010040283,0.004007112,-0.0025302004,-487.9847,0.0071615474,-0.023975587,-0.03447616,-0.050581954,-0.00090424286,0.00046052953,-0.0002578646,-0.0013533263,-0.07937276,0.007475726,0.018779743,0.0003221345,4.2974483e-05,0.016992038,1.8594656e-05,487.9847,0.1000061,0.010000001,-487.9847,0.12069682,0.11324737,0.08058641,0.049350116,inf,inf,inf,inf,inf,160,1,1,1,1,3,3,2,1,5,1,1,1,0,3,0,0
1771685524492000,1771685524492000,1771685524492000,1771684928340000,47.3977419,8.5455939,0.017473001,-0.030096134,-0.0101623535,0.004007112,-0.0025302004,-487.9847,0.0071530123,-0.024317078,-0.03443081,-0.050342243,-0.00090424286,0.00046052953,-0.0002578646,0.0059711267,-0.058117032,-0.0009313225,0.018785274,0.0003222519,5.0480943e-05,0.016992038,1.863898e-05,487.9847,0.1000061,0.010000001,-487.9847,0.12110447,0.11343935,0.08088712,0.049422413,inf,inf,inf,inf,inf,160,1,1,1,1,3,3,2,1,5,1,1,1,0,3,0,0
1771685524500000,1771685524500000,1771685524500000,1771684928340000,47.3977419,8.5455939,0.017451556,-0.030131796,-0.010314941,0.004007112,-0.0025302004,-487.9847,0.007007352,-0.024389725,-0.034338906,-0.050057538,-0.00090424286,0.00046052953,-0.0002578646,-0.011374213,-0.024089597,0.0050081867,0.018864455,0.00032236928,0.0001315265,0.016992038,1.8683339e-05,487.9847,0.1000061,0.010000001,-487.9847,0.12151489,0.113691166,0.08118741,0.049505018,inf,inf,inf,inf,inf,160,1,1,1,1,3,3,2,1,5,1,1,1,0,3,0,0
1771685524508000,1771685524508000,1771685524508000,1771684928340000,47.3977419,8.5455939,0.017430553,-0.030170009,-0.010437012,0.004007112,-0.0025302004,-487.9847,0.0069360537,-0.024137113,-0.034162086,-0.04968949,-0.00090424286,0.00046052953,-0.0002578646,-0.0021427772,0.016969673,0.015740747,0.018954331,0.0003216256,0.00022314629,0.016992038,1.8716639e-05,487.9847,0.1000061,0.010000001,-487.9847,0.121925645,0.11394381,0.08147803,0.049587496,inf,inf,inf,inf,inf,160,1,1,1,1,3,3,2,1,5,1,1,1,0,3,0,0
1771685524516000,1771685524516000,1771685524516000,1771684928340000,47.3977419,8.5455939,0.017400421,-0.030190112,-0.0105896,0.004007112,-0.0025302004,-487.9847,0.006622709,-0.023891473,-0.03424107,-0.04957018,-0.00090424286,0.00046052953,-0.0002578646,-0.031622168,0.014014059,-0.017188953,0.018986642,0.00032172026,0.0002572178,0.016992038,1.8482664e-05,487.9847,0.1000061,0.010000001,-487.9847,0.11969276,0.112624615,0.07984102,0.04914385,inf,inf,inf,inf,inf,160,1,1,1,1,3,3,2,1,5,1,1,1,0,3,0,0
1771685524524000,1771685524524000,1771685524524000,1771684928340000,47.3977419,8.5455939,0.017371265,-0.030213235,-0.01071167,0.004007112,-0.0025302004,-487.9847,0.0068331165,-0.023957727,-0.03421524,-0.049347963,-0.00090424286,0.00046052953,-0.0002578646,0.03363895,-0.024514895,-0.003945082,0.018996976,0.0003218375,0.0002690046,0.016992038,1.8526893e-05,487.9847,0.1000061,0.010000001,-487.9847,0.120093584,0.112873636,0.08014022,0.049226888,inf,inf,inf,inf,inf,160,1,1,1,1,3,3,2,1,5,1,1,1,0,3,0,0
1771685524532000,1771685524532000,1771685524532000,1771684928340000,47.3977419,8.5455939,0.017347967,-0.03024134,-0.01083374,0.004007112,-0.0025302004,-487.9847,0.00741581,-0.024072353,-0.034496717,-0.049434982,-0.00090424286,0.00046052953,-0.0002578646,0.07997268,-0.030124087,-0.042219177,0.019004202,0.00032195475,0.00027757837,0.016992038,1.8571161e-05,487.9847,0.1000061,0.010000001,-487.9847,0.12049715,0.1131235,0.080439106,0.049309794,inf,inf,inf,inf,inf,160,1,1,1,1,3,3,2,1,5,1,1,1,0,3,0,0
1771685524540000,1771685524540000,1771685524540000,1771684928340000,47.3977419,8.5455939,0.017330155,-0.03027216,-0.010986328,0.004007112,-0.0025302004,-487.9847,0.0077119456,-0.023764815,-0.034333926,-0.04907672,-0.00090424286,0.00046052953,-0.0002578646,0.043955926,0.023079969,0.013363081,0.019097691,0.00032207204,0.00037232554,0.016992038,1.8615468e-05,487.9847,0.1000061,0.010000001,-487.9847,0.120903455,0.11331526,0.08073837,0.049382206,inf,inf,inf,inf,inf,160,1,1,1,1,3,3,2,1,5,1,1,1,0,3,0,0
1771685524548000,1771685524548000,1771685524548000,1771684928340000,47.3977419,8.5455939,0.017315185,-0.030303787,-0.011108398,0.004007112,-0.0025302004,-487.9847,0.0076832096,-0.023447132,-0.034263365,-0.04881286,-0.00090424286,0.00046052953,-0.0002578646,0.003149778,0.024775844,0.0019678844,0.019145526,0.0003221894,0.00042133173,0.016992038,1.8659812e-05,487.9847,0.1000061,0.010000001,-487.9847,0.12131252,0.11356667,0.08103759,0.049464874,inf,inf,inf,inf,inf,160,1,1,1,1,3,3,2,1,5,1,1,1,0,3,0,0
1771685524556000,1771685524556000,1771685524556000,1771684928340000,47.3977419,8.5455939,0.017301807,-0.030338904,-0.011230469,0.004007112,-0.0025302004,-487.9847,0.007593321,-0.023738293,-0.03457626,-0.048934642,-0.00090424286,0.00046052953,-0.0002578646,-0.004683571,-0.0509225,-0.045834105,0.019142332,0.0003223068,0.00041922322,0.016992038,1.8704191e-05,487.9847,0.1000061,0.010000001,-487.9847,0.12172434,0.113818906,0.08133826,0.049547415,inf,inf,inf,inf,inf,160,1,1,1,1,3,3,2,1,5,1,1,1,0,3,0,0
1771685524564000,1771685524564000,1771685524564000,1771684928340000,47.3977419,8.5455939,0.01728846,-0.030379346,-0.011383057,0.004007112,-0.0025302004,-487.9847,0.0073304805,-0.023825591,-0.034540944,-0.048710376,-0.00090424286,0.00046052953,-0.0002578646,-0.02649327,-0.02503993,-0.0021806916,0.019164793,0.00032242422,0.00044269254,0.016992038,1.8748611e-05,487.9847,0.1000061,0.010000001,-487.9847,0.12213893,0.11407198,0.08163882,0.04962983,inf,inf,inf,inf,inf,160,1,1,1,1,3,3,2,1,5,1,1,1,0,3,0,0
1771685524572000,1771685524572000,1771685524572000,1771684928340000,47.3977419,8.5455939,0.017276442,-0.030403294,-0.011505127,0.004007112,-0.0025302004,-487.9847,0.00752454,-0.02410426,-0.034432665,-0.048413668,-0.00090424286,0.00046052953,-0.0002578646,0.031003967,-0.051182166,0.00626035,0.019214978,0.0003225195,0.0004938054,0.016992038,1.851231e-05,487.9847,0.1000061,0.010000001,-487.9847,0.119890854,0.11274767,0.07998997,0.0491843,inf,inf,inf,inf,inf,160,1,1,1,1,3,3,2,1,5,1,1,1,0,3,0,0
1771685524580000,1771685524580000,1771685524580000,1771684928340000,47.3977419,8.5455939,0.017267363,-0.030435653,-0.011627197,0.004007112,-0.0025302004,-487.9847,0.0074584903,-0.0243916,-0.03405272,-0.047847446,-0.00090424286,0.00046052953,-0.0002578646,-0.0017906085,-0.051492915,0.040361654,0.019232385,0.00032177445,0.0005118619,0.016992038,1.854567e-05,487.9847,0.1000061,0.010000001,-487.9847,0.12029082,0.1129971,0.08028036,0.049267273,inf,inf,inf,inf,inf,160,1,1,1,1,3,3,2,1,5,1,1,1,0,3,0,0
1771685524588000,1771685524588000,1771685524588000,1771684928340000,47.3977419,8.5455939,0.017258683,-0.030471219,-0.011779785,0.004007112,-0.0025302004,-487.9847,0.007397374,-0.024171144,-0.03353079,-0.047141336,-0.00090424286,0.00046052953,-0.0002578646,-0.0013605931,0.0124186305,0.0582491,0.01926953,0.00032189168,0.0005469336,0.016992038,1.8589955e-05,487.9847,0.1000061,0.010000001,-487.9847,0.120695695,0.11324737,0.08058063,0.049350116,inf,inf,inf,inf,inf,160,1,1,1,1,3,3,2,1,5,1,1,1,0,3,0,0
1771685524596000,1771685524596000,1771685524596000,1771684928340000,47.3977419,8.5455939,0.01725475,-0.030508487,-0.011871338,0.004007112,-0.0025302004,-487.9847,0.008011505,-0.023866564,-0.03294119,-0.046364572,-0.00090424286,0.00046052953,-0.0002578646,0.082862504,0.023354985,0.066658944,0.019263202,0.00032200888,0.0005384623,0.016992038,1.8634273e-05,487.9847,0.1000061,0.010000001,-487.9847,0.121103324,0.113439344,0.08088029,0.049422413,inf,inf,inf,inf,inf,160,1,1,1,1,3,3,2,1,5,1,1,1,0,3,0,0
1771685524604000,1771685524604000,1771685524604000,1771684928340000,47.3977419,8.5455939,0.017255394,-0.030547539,-0.011993408,0.004007112,-0.0025302004,-487.9847,0.008250497,-0.023765346,-0.03288896,-0.046127412,-0.00090424286,0.00046052953,-0.0002578646,0.035791047,-0.0016552204,-0.00037532297,0.019240944,0.00032212617,0.00051399646,0.016992038,1.8678635e-05,487.9847,0.1000061,0.010000001,-487.9847,0.1215137,0.11369116,0.08118024,0.049505018,inf,inf,inf,inf,inf,160,1,1,1,1,3,3,2,1,5,1,1,1,0,3,0,0
1771685524612000,1771685524612000,1771685524612000,1771684928340000,47.3977419,8.5455939,0.017258812,-0.030588519,-0.0121154785,0.004007112,-0.0025302004,-487.9847,0.008363441,-0.023483863,-0.032665666,-0.0457214,-0.00090424286,0.00046052953,-0.0002578646,0.019977074,0.021302724,0.021141486,0.019294417,0.0003220595,0.00056517636,0.016992038,1.8720897e-05,487.9847,0.1000061,0.010000001,-487.9847,0.12192643,0.11394381,0.08147914,0.0495875,inf,inf,inf,inf,inf,160,1,1,1,1,3,3,2,1,5,1,1,1,0,3,0,0
1771685524620000,1771685524620000,1771685524620000,1771684928340000,47.3977419,8.5455939,0.01726453,-0.03060954,-0.012237549,0.004007112,-0.0025302004,-487.9847,0.008500123,-0.023578163,-0.03231149,-0.045182113,-0.00090424286,0.00046052953,-0.0002578646,0.0233136,-0.028129112,0.0367593,0.019266786,0.00032215452,0.00053438125,0.016992038,1.8486844e-05,487.9847,0.1000061,0.010000001,-487.9847,0.119693466,0.11262461,0.07984171,0.04914386,inf,inf,inf,inf,inf,160,1,1,1,1,3,3,2,1,5,1,1,1,0,3,0,0
1771685524628000,1771685524628000,1771685524628000,1771684928340000,47.3977419,8.5455939,0.01727155,-0.030634716,-0.012329102,0.004007112,-0.0025302004,-487.9847,0.008395133,-0.023589056,-0.032246068,-0.044933945,-0.00090424286,0.00046052953,-0.0002578646,-0.0070737265,-0.01725102,0.0008172355,0.019299062,0.0003222718,0.00056319823,0.016992038,1.8531071e-05,487.9847,0.1000061,0.010000001,-487.9847,0.12009431,0.112873636,0.08014116,0.049226895,inf,inf,inf,inf,inf,160,1,1,1,1,3,3,2,1,5,1,1,1,0,3,0,0
1771685524636000,1771685524636000,1771685524636000,1771684928340000,47.3977419,8.5455939,0.017279988,-0.030663522,-0.012451172,0.004007112,-0.0025302004,-487.9847,0.00848746,-0.023570383,-0.032263134,-0.044770595,-0.00090424286,0.00046052953,-0.0002578646,0.017422218,-0.013112821,-0.009345821,0.019298438,0.00032238904,0.0005590464,0.016992038,1.857533e-05,487.9847,0.1000061,0.010000001,-487.9847,0.12049788,0.1131235,0.08044058,0.0493098,inf,inf,inf,inf,inf,160,1,1,1,1,3,3,2,1,5,1,1,1,0,3,0,0
1771685524644000,1771685524644000,1771685524644000,1771684928340000,47.3977419,8.5455939,0.01729058,-0.030696219,-0.012573242,0.004007112,-0.0025302004,-487.9847,0.008557325,-0.02366991,-0.03271099,-0.045036323,-0.00090424286,0.00046052953,-0.0002578646,0.014501799,-0.027505266,-0.063202806,0.019293558,0.0003216451,0.0005505732,0.016992038,1.8608662e-05,487.9847,0.1000061,0.010000001,-487.9847,0.12090192,0.11331526,0.08073127,0.049382214,inf,inf,inf,inf,inf,160,1,1,1,1,3,3,2,1,5,1,1,1,0,3,0,0
1771685524652000,1771685524652000,1771685524652000,1771684928340000,47.3977419,8.5455939,0.017303277,-0.030731963,-0.012664795,0.004007112,-0.0025302004,-487.9847,0.008665269,-0.023514224,-0.03283941,-0.044985045,-0.00090424286,0.00046052953,-0.0002578646,0.019102836,0.0048152874,-0.023128929,0.019306371,0.00032176214,0.00056016585,0.016992038,1.8652992e-05,487.9847,0.1000061,0.010000001,-487.9847,0.12131094,0.11356667,0.081031166,0.049464878,inf,inf,inf,inf,inf,160,1,1,1,1,3,3,2,1,5,1,1,1,0,3,0,0
1771685524660000,1771685524660000,1771685524660000,1771684928340000,47.3977419,8.5455939,0.017317826,-0.030771352,-0.012786865,0.004007112,-0.0025302004,-487.9847,0.008684163,-0.023709647,-0.032523327,-0.044491686,-0.00090424286,0.00046052953,-0.0002578646,0.0078115175,-0.038664088,0.032573935,0.019256402,0.00032187914,0.0005069184,0.016992038,1.8697352e-05,487.9847,0.1000061,0.010000001,-487.9847,0.12172273,0.113818906,0.08133114,0.049547415,inf,inf,inf,inf,inf,160,1,1,1,1,3,3,2,1,5,1,1,1,0,3,0,0
1771685524668000,1771685524668000,1771685524668000,1771684928340000,47.3977419,8.5455939,0.017334448,-0.030815482,-0.012908936,0.004007112,-0.0025302004,-487.9847,0.008915745,-0.023803432,-0.032347165,-0.04414063,-0.00090424286,0.00046052953,-0.0002578646,0.03424002,-0.025561126,0.015220138,0.019212855,0.00032199634,0.0004600319,0.016992038,1.8741763e-05,487.9847,0.1000061,0.010000001,-487.9847,0.12213727,0.11407197,0.08163198,0.04962983,inf,inf,inf,inf,inf,160,1,1,1,1,3,3,2,1,5,1,1,1,0,3,0,0
1771685524676000,1771685524676000,1771685524676000,1771684928340000,47.3977419,8.5455939,0.01735423,-0.030839816,-0.013000488,0.004007112,-0.0025302004,-487.9847,0.009056021,-0.02395943,-0.032936037,-0.044553332,-0.00090424286,0.00046052953,-0.0002578646,0.023191074,-0.035940465,-0.08114567,0.019243913,0.0003220911,0.00048769033,0.016992038,1.850567e-05,487.9847,0.1000061,0.010000001,-487.9847,0.11988941,0.11274766,0.079982914,0.0491843,inf,inf,inf,inf,inf,160,1,1,1,1,3,3,2,1,5,1,1,1,0,3,0,0
1771685524684000,1771685524684000,1771685524684000,1771684928340000,47.3977419,8.5455939,0.01737524,-0.030868376,-0.013122559,0.004007112,-0.0025302004,-487.9847,0.0090104835,-0.023828013,-0.032932788,-0.044376336,-0.00090424286,0.00046052953,-0.0002578646,-0.00019380558,0.00043874205,-0.0069760713,0.019289099,0.00032220833,0.0005292087,0.016992038,1.8549916e-05,487.9847,0.1000061,0.010000001,-487.9847,0.120291546,0.11299709,0.080283485,0.049267277,inf,inf,inf,inf,inf,160,1,1,1,1,3,3,2,1,5,1,1,1,0,3,0,0
1771685524692000,1771685524692000,1771685524692000,1771684928340000,47.3977419,8.5455939,0.017397687,-0.030898325,-0.013244629,0.004007112,-0.0025302004,-487.9847,0.009041141,-0.02347957,-0.032921378,-0.04419353,-0.00090424286,0.00046052953,-0.0002578646,0.009169305,0.02800585,-0.005805399,0.019321598,0.0003223256,0.0005579847,0.016992038,1.8594197e-05,487.9847,0.1000061,0.010000001,-487.9847,0.12069644,0.113247365,0.08058304,0.04935012,inf,inf,inf,inf,inf,160,1,1,1,1,3,3,2,1,5,1,1,1,0,3,0,0
1771685524700000,1771685524700000,1771685524700000,1771684928340000,47.3977419,8.5455939,0.017422026,-0.030931065,-0.013366699,0.004007112,-0.0025302004,-487.9847,0.009267925,-0.02367949,-0.03279926,-0.043898344,-0.00090424286,0.00046052953,-0.0002578646,0.033532344,-0.040104013,0.008048489,0.019332899,0.00032244288,0.0005655135,0.016992038,1.8638517e-05,487.9847,0.1000061,0.010000001,-487.9847,0.12110408,0.113439344,0.08088296,0.049422417,inf,inf,inf,inf,inf,160,1,1,1,1,3,3,2,1,5,1,1,1,0,3,0,0
1771685524708000,1771685524708000,1771685524708000,1771684928340000,47.3977419,8.5455939,0.017449094,-0.030969817,-0.013458252,0.004007112,-0.0025302004,-487.9847,0.009265815,-0.023947848,-0.03276457,-0.043692995,-0.00090424286,0.00046052953,-0.0002578646,0.004772109,-0.0482328,-0.0027343628,0.019368725,0.00032256023,0.0005975305,0.016992038,1.8682873e-05,487.9847,0.1000061,0.010000001,-487.9847,0.12151448,0.11369116,0.08118415,0.049505025,inf,inf,inf,inf,inf,160,1,1,1,1,3,3,2,1,5,1,1,1,0,3,0,0
1771685524716000,1771685524716000,1771685524716000,1771684928340000,47.3977419,8.5455939,0.017475152,-0.031013075,-0.013580322,0.004007112,-0.0025302004,-487.9847,0.009485735,-0.023858212,-0.032597158,-0.043357246,-0.00090424286,0.00046052953,-0.0002578646,0.03289561,-0.0029729775,0.013998243,0.019397141,0.00032181575,0.0006220951,0.016992038,1.8716171e-05,487.9847,0.1000061,0.010000001,-487.9847,0.12192522,0.1139438,0.08147518,0.049587503,inf,inf,inf,inf,inf,160,1,1,1,1,3,3,2,1,5,1,1,1,0,3,0,0
1771685524724000,1771685524724000,1771685524724000,1771684928340000,47.3977419,8.5455939,0.017492779,-0.031027295,-0.013671875,0.004007112,-0.0025302004,-487.9847,0.009645083,-0.0236457,-0.032771472,-0.043353897,-0.00090424286,0.00046052953,-0.0002578646,0.026329365,0.009425708,-0.029712448,0.019433703,0.00032191028,0.00065410463,0.016992038,1.848226e-05,487.9847,0.1000061,0.010000001,-487.9847,0.11969239,0.1126246,0.07983792,0.049143862,inf,inf,inf,inf,inf,160,1,1,1,1,3,3,2,1,5,1,1,1,0,3,0,0
1771685524732000,1771685524732000,1771685524732000,1771684928340000,47.3977419,8.5455939,0.01751313,-0.031044696,-0.013793945,0.004007112,-0.0025302004,-487.9847,0.009885435,-0.023607336,-0.03245847,-0.042866006,-0.00090424286,0.00046052953,-0.0002578646,0.036270585,-0.01186452,0.031369735,0.01945668,0.0003220274,0.0006722375,0.016992038,1.8526483e-05,487.9847,0.1000061,0.010000001,-487.9847,0.12009321,0.11287363,0.080136344,0.0492269,inf,inf,inf,inf,inf,160,1,1,1,1,3,3,2,1,5,1,1,1,0,3,0,0
1771685524740000,1771685524740000,1771685524740000,1771684928340000,47.3977419,8.5455939,0.017537078,-0.0310655,-0.013885498,0.004007112,-0.0025302004,-487.9847,0.01005232,-0.023604913,-0.03201749,-0.042252973,-0.00090424286,0.00046052953,-0.0002578646,0.026904402,-0.01588864,0.047529113,0.019439248,0.00032214457,0.0006499267,0.016992038,1.8570747e-05,487.9847,0.1000061,0.010000001,-487.9847,0.12049676,0.11312349,0.08043465,0.049309805,inf,inf,inf,inf,inf,160,1,1,1,1,3,3,2,1,5,1,1,1,0,3,0,0
1771685524748000,1771685524748000,1771685524748000,1771684928340000,47.3977419,8.5455939,0.017562527,-0.031091852,-0.013977051,0.004007112,-0.0025302004,-487.9847,0.0100559825,-0.023980498,-0.032103222,-0.04216555,-0.00090424286,0.00046052953,-0.0002578646,0.006333304,-0.062688015,-0.018275807,0.019512286,0.0003222618,0.00071812375,0.016992038,1.8615046e-05,487.9847,0.1000061,0.010000001,-487.9847,0.12090305,0.113315254,0.08073339,0.049382217,inf,inf,inf,inf,inf,160,1,1,1,1,3,3,2,1,5,1,1,1,0,3,0,0
1771685524756000,1771685524756000,1771685524756000,1771684928340000,47.3977419,8.5455939,0.01759058,-0.031123763,-0.014099121,0.004007112,-0.0025302004,-487.9847,0.010206978,-0.023969766,-0.032066017,-0.04195827,-0.00090424286,0.00046052953,-0.0002578646,0.024584971,-0.013958696,-0.0027515923,0.019545797,0.00032237906,0.0007468383,0.016992038,1.8659382e-05,487.9847,0.1000061,0.010000001,-487.9847,0.12131209,0.11356666,0.08103361,0.04946489,inf,inf,inf,inf,inf,160,1,1,1,1,3,3,2,1,5,1,1,1,0,3,0,0
1771685524764000,1771685524764000,1771685524764000,1771684928340000,47.3977419,8.5455939,0.017620007,-0.031157805,-0.014190674,0.004007112,-0.0025302004,-487.9847,0.010151827,-0.023713712,-0.031944267,-0.04166947,-0.00090424286,0.00046052953,-0.0002578646,-0.0013430384,0.01713181,0.007969792,0.019615475,0.00032249634,0.0008117701,0.016992038,1.8703759e-05,487.9847,0.1000061,0.010000001,-487.9847,0.1217239,0.1138189,0.0813336,0.04954743,inf,inf,inf,inf,inf,160,1,1,1,1,3,3,2,1,5,1,1,1,0,3,0,0
1771685524772000,1771685524772000,1771685524772000,1771684928340000,47.3977419,8.5455939,0.017649576,-0.03119459,-0.014282227,0.004007112,-0.0025302004,-487.9847,0.009917811,-0.02364565,-0.031828392,-0.041389577,-0.00090424286,0.00046052953,-0.0002578646,-0.023854006,-0.0059521208,0.007384922,0.01964362,0.0003226137,0.00083521707,0.016992038,1.8748171e-05,487.9847,0.1000061,0.010000001,-487.9847,0.12213846,0.11407197,0.081633575,0.04962984,inf,inf,inf,inf,inf,160,1,1,1,1,3,3,2,1,5,1,1,1,0,3,0,0
1771685524780000,1771685524780000,1771685524780000,1771684928340000,47.3977419,8.5455939,0.017657043,-0.031209389,-0.014373779,0.004007112,-0.0025302004,-487.9847,0.010124087,-0.02351487,-0.032100465,-0.0415001,-0.00090424286,0.00046052953,-0.0002578646,0.032956474,-0.0006846858,-0.041673888,0.019661084,0.00032184614,0.0008480563,0.016992038,1.850113e-05,487.9847,0.1000061,0.010000001,-487.9847,0.11988833,0.11274766,0.0799752,0.049184307,inf,inf,inf,inf,inf,160,1,1,1,1,3,3,2,1,5,1,1,1,0,3,0,0
1771685524788000,1771685524788000,1771685524788000,1771684928340000,47.3977419,8.5455939,0.017667184,-0.031229042,-0.01449585,0.004007112,-0.0025302004,-487.9847,0.010071626,-0.023686277,-0.031961787,-0.04120189,-0.00090424286,0.00046052953,-0.0002578646,0.00041898282,-0.037988666,0.0098319715,0.019695327,0.00032196322,0.0008779387,0.016992038,1.8545372e-05,487.9847,0.1000061,0.010000001,-487.9847,0.120290436,0.11299709,0.080274805,0.04926728,inf,inf,inf,inf,inf,160,1,1,1,1,3,3,2,1,5,1,1,1,0,3,0,0
1771685524796000,1771685524796000,1771685524796000,1771684928340000,47.3977419,8.5455939,0.01767812,-0.03125309,-0.014587402,0.004007112,-0.0025302004,-487.9847,0.009869182,-0.023757474,-0.03201611,-0.041099582,-0.00090424286,0.00046052953,-0.0002578646,-0.018523427,-0.024998402,-0.014136079,0.019682683,0.00032208033,0.0008610091,0.016992038,1.858965e-05,487.9847,0.1000061,0.010000001,-487.9847,0.120695285,0.11324736,0.080575794,0.049350124,inf,inf,inf,inf,inf,160,1,1,1,1,3,3,2,1,5,1,1,1,0,3,0,0
1771685524804000,1771685524804000,1771685524804000,1771684928340000,47.3977419,8.5455939,0.017689502,-0.031282444,-0.014709473,0.004007112,-0.0025302004,-487.9847,0.009889361,-0.023932217,-0.031917196,-0.04084279,-0.00090424286,0.00046052953,-0.0002578646,0.009112505,-0.0374902,0.005051493,0.019607065,0.0003221975,0.0007811799,0.016992038,1.8633968e-05,487.9847,0.1000061,0.010000001,-487.9847,0.121102884,0.11343934,0.08087626,0.049422424,inf,inf,inf,inf,inf,160,1,1,1,1,3,3,2,1,5,1,1,1,0,3,0,0
1771685524812000,1771685524812000,1771685524812000,1771684928340000,47.3977419,8.5455939,0.017703244,-0.031316165,-0.014801025,0.004007112,-0.0025302004,-487.9847,0.01021078,-0.024003949,-0.031589605,-0.040360183,-0.00090424286,0.00046052953,-0.0002578646,0.04680701,-0.024127878,0.03378838,0.019646319,0.00032213118,0.00081630005,0.016992038,1.86762e-05,487.9847,0.1000061,0.010000001,-487.9847,0.121512845,0.11369115,0.08117407,0.049505033,inf,inf,inf,inf,inf,160,1,1,1,1,3,3,2,1,5,1,1,1,0,3,0,0
1771685524820000,1771685524820000,1771685524820000,1771684928340000,47.3977419,8.5455939,0.017722003,-0.031354416,-0.014892578,0.004007112,-0.0025302004,-487.9847,0.01063535,-0.024048435,-0.03138771,-0.04000612,-0.00090424286,0.00046052953,-0.0002578646,0.05951234,-0.02029612,0.01822505,0.019719202,0.0003222484,0.00088657765,0.016992038,1.8720588e-05,487.9847,0.1000061,0.010000001,-487.9847,0.12192596,0.1139438,0.08147436,0.04958751,inf,inf,inf,inf,inf,160,1,1,1,1,3,3,2,1,5,1,1,1,0,3,0,0
1771685524828000,1771685524828000,1771685524828000,1771684928340000,47.3977419,8.5455939,0.01773103,-0.031372495,-0.015014648,0.004007112,-0.0025302004,-487.9847,0.010587861,-0.02412949,-0.030994995,-0.039465398,-0.00090424286,0.00046052953,-0.0002578646,0.0016423564,-0.02742959,0.041544434,0.019819664,0.000322343,0.0009845044,0.016992038,1.8486597e-05,487.9847,0.1000061,0.010000001,-487.9847,0.11969306,0.1126246,0.07983882,0.04914387,inf,inf,inf,inf,inf,160,1,1,1,1,3,3,2,1,5,1,1,1,0,3,0,0
1771685524836000,1771685524836000,1771685524836000,1771684928340000,47.3977419,8.5455939,0.017741466,-0.031394485,-0.015106201,0.004007112,-0.0025302004,-487.9847,0.010486798,-0.024040544,-0.030800115,-0.03912508,-0.00090424286,0.00046052953,-0.0002578646,-0.0052689053,-0.005700949,0.016974749,0.019819122,0.00032246017,0.0009812764,0.016992038,1.8530818e-05,487.9847,0.1000061,0.010000001,-487.9847,0.12009389,0.11287363,0.08013823,0.049226902,inf,inf,inf,inf,inf,160,1,1,1,1,3,3,2,1,5,1,1,1,0,3,0,0
1771685524844000,1771685524844000,1771685524844000,1771684928340000,47.3977419,8.5455939,0.01775299,-0.031420395,-0.0152282715,0.004007112,-0.0025302004,-487.9847,0.010475324,-0.024179399,-0.030773757,-0.038955793,-0.00090424286,0.00046052953,-0.0002578646,0.0057238108,-0.033707917,-0.0039348374,0.019795144,0.00032257746,0.00095470203,0.016992038,1.8575081e-05,487.9847,0.1000061,0.010000001,-487.9847,0.12049745,0.11312349,0.08043792,0.04930981,inf,inf,inf,inf,inf,160,1,1,1,1,3,3,2,1,5,1,1,1,0,3,0,0
1771685524852000,1771685524852000,1771685524852000,1771684928340000,47.3977419,8.5455939,0.017767003,-0.031452037,-0.015319824,0.004007112,-0.0025302004,-487.9847,0.010746817,-0.02418176,-0.030724123,-0.038763683,-0.00090424286,0.00046052953,-0.0002578646,0.04100723,-0.015988523,-0.000945758,0.019777458,0.0003218326,0.0009345091,0.016992038,1.8608403e-05,487.9847,0.1000061,0.010000001,-487.9847,0.12090147,0.113315254,0.08072853,0.04938222,inf,inf,inf,inf,inf,160,1,1,1,1,3,3,2,1,5,1,1,1,0,3,0,0
1771685524860000,1771685524860000,1771685524860000,1771684928340000,47.3977419,8.5455939,0.017784772,-0.031486616,-0.015411377,0.004007112,-0.0025302004,-487.9847,0.010902159,-0.024091322,-0.030618392,-0.038517978,-0.00090424286,0.00046052953,-0.0002578646,0.02629436,-0.003949882,0.0062156464,0.019809106,0.00032194957,0.00096218986,0.016992038,1.8652729e-05,487.9847,0.1000061,0.010000001,-487.9847,0.12131049,0.11356666,0.08102864,0.049464893,inf,inf,inf,inf,inf,160,1,1,1,1,3,3,2,1,5,1,1,1,0,3,0,0
1771685524868000,1771685524868000,1771685524868000,1771684928340000,47.3977419,8.5455939,0.017803859,-0.031524934,-0.015533447,0.004007112,-0.0025302004,-487.9847,0.0107456,-0.024183566,-0.030566439,-0.038328514,-0.00090424286,0.00046052953,-0.0002578646,-0.0128817465,-0.026357029,-0.00036135313,0.019825712,0.00032206657,0.0009749229,0.016992038,1.869709e-05,487.9847,0.1000061,0.010000001,-487.9847,0.12172226,0.11381889,0.081328794,0.049547434,inf,inf,inf,inf,inf,160,1,1,1,1,3,3,2,1,5,1,1,1,0,3,0,0
1771685524876000,1771685524876000,1771685524876000,1771684928340000,47.3977419,8.5455939,0.017824626,-0.03156795,-0.015625,0.004007112,-0.0025302004,-487.9847,0.010861338,-0.02435147,-0.030692581,-0.038319543,-0.00090424286,0.00046052953,-0.0002578646,0.020970797,-0.035399083,-0.022482125,0.01981669,0.00032218362,0.0009621023,0.016992038,1.8741492e-05,487.9847,0.1000061,0.010000001,-487.9847,0.122136794,0.114071965,0.08163011,0.049629845,inf,inf,inf,inf,inf,160,1,1,1,1,3,3,2,1,5,1,1,1,0,3,0,0
1771685524884000,1771685524884000,1771685524884000,1771684928340000,47.3977419,8.5455939,0.017823016,-0.031583298,-0.01574707,0.004007112,-0.0025302004,-487.9847,0.01066271,-0.02415679,-0.030936614,-0.038439278,-0.00090424286,0.00046052953,-0.0002578646,-0.016533738,0.006996365,-0.037507616,0.01983105,0.0003222777,0.0009727846,0.016992038,1.8505463e-05,487.9847,0.1000061,0.010000001,-487.9847,0.11988899,0.112747654,0.07998046,0.04918432,inf,inf,inf,inf,inf,160,1,1,1,1,3,3,2,1,5,1,1,1,0,3,0,0
1771685524892000,1771685524892000,1771685524892000,1771684928340000,47.3977419,8.5455939,0.017823283,-0.031600874,-0.01586914,0.004007112,-0.0025302004,-487.9847,0.010841103,-0.024010578,-0.030961365,-0.038341843,-0.00090424286,0.00046052953,-0.0002578646,0.03036655,0.0014195392,-0.009951181,0.019796547,0.00032239468,0.00093446625,0.016992038,1.85497e-05,487.9847,0.1000061,0.010000001,-487.9847,0.12029112,0.11299709,0.08027897,0.049267292,inf,inf,inf,inf,inf,160,1,1,1,1,3,3,2,1,5,1,1,1,0,3,0,0
1771685524900000,1771685524900000,1771685524900000,1771684928340000,47.3977419,8.5455939,0.01782727,-0.03162289,-0.015991211,0.004007112,-0.0025302004,-487.9847,0.0109982705,-0.024138851,-0.030958204,-0.038218603,-0.00090424286,0.00046052953,-0.0002578646,0.027489338,-0.032422442,-0.0063199545,0.019813066,0.0003225119,0.0009472887,0.016992038,1.8593979e-05,487.9847,0.1000061,0.010000001,-487.9847,0.12069599,0.11324736,0.08057904,0.049350135,inf,inf,inf,inf,inf,160,1,1,1,1,3,3,2,1,5,1,1,1,0,3,0,0
1771685524908000,1771685524908000,1771685524908000,1771684928340000,47.3977419,8.5455939,0.017834269,-0.031649556,-0.016082764,0.004007112,-0.0025302004,-487.9847,0.011067604,-0.0241721,-0.031261954,-0.038401317,-0.00090424286,0.00046052953,-0.0002578646,0.016287444,-0.020091506,-0.044646204,0.019803945,0.00032262912,0.0009345873,0.016992038,1.8638293e-05,487.9847,0.1000061,0.010000001,-487.9847,0.121103615,0.11343934,0.080879144,0.04942244,inf,inf,inf,inf,inf,160,1,1,1,1,3,3,2,1,5,1,1,1,0,3,0,0
1771685524916000,1771685524916000,1771685524916000,1771684928340000,47.3977419,8.5455939,0.017843112,-0.031677462,-0.016204834,0.004007112,-0.0025302004,-487.9847,0.011205263,-0.023602327,-0.031083941,-0.038104393,-0.00090424286,0.00046052953,-0.0002578646,0.024723856,0.055670932,0.015711876,0.01984585,0.00032188435,0.0009730193,0.016992038,1.8671593e-05,487.9847,0.1000061,0.010000001,-487.9847,0.12151163,0.11369115,0.08116987,0.04950504,inf,inf,inf,inf,inf,160,1,1,1,1,3,3,2,1,5,1,1,1,0,3,0,0
1771685524924000,1771685524924000,1771685524924000,1771684928340000,47.3977419,8.5455939,0.017857404,-0.03170572,-0.016326904,0.004007112,-0.0025302004,-487.9847,0.011854932,-0.02340209,-0.030982882,-0.037886523,-0.00090424286,0.00046052953,-0.0002578646,0.08851587,0.009910586,0.0062263566,0.01988064,0.0003220013,0.0010049785,0.016992038,1.8715971e-05,487.9847,0.1000061,0.010000001,-487.9847,0.12192472,0.1139438,0.08147005,0.049587518,inf,inf,inf,inf,inf,160,1,1,1,1,3,3,2,1,5,1,1,1,0,3,0,0
1771685524932000,1771685524932000,1771685524932000,1771684928340000,47.3977419,8.5455939,0.017853664,-0.031706363,-0.016448975,0.004007112,-0.0025302004,-487.9847,0.011989959,-0.023302171,-0.03114265,-0.03793799,-0.00090424286,0.00046052953,-0.0002578646,0.025928669,-0.005484215,-0.026704276,0.019848226,0.0003220953,0.00096984534,0.016992038,1.8482144e-05,487.9847,0.1000061,0.010000001,-487.9847,0.119691975,0.1126246,0.07983399,0.049143877,inf,inf,inf,inf,inf,160,1,1,1,1,3,3,2,1,5,1,1,1,0,3,0,0
1771685524940000,1771685524940000,1771685524940000,1771684928340000,47.3977419,8.5455939,0.017852355,-0.031709176,-0.016601562,0.004007112,-0.0025302004,-487.9847,0.011819883,-0.022986377,-0.03088735,-0.037576143,-0.00090424286,0.00046052953,-0.0002578646,-0.012456721,0.022003738,0.025318934,0.019760521,0.00032221232,0.0008792798,0.016992038,1.8526363e-05,487.9847,0.1000061,0.010000001,-487.9847,0.12009277,0.11287363,0.08013303,0.049226914,inf,inf,inf,inf,inf,160,1,1,1,1,3,3,2,1,5,1,1,1,0,3,0,0
1771685524948000,1771685524948000,1771685524948000,1771684928340000,47.3977419,8.5455939,0.017851919,-0.031715225,-0.016723633,0.004007112,-0.0025302004,-487.9847,0.011765473,-0.023004605,-0.030982224,-0.03756618,-0.00090424286,0.00046052953,-0.0002578646,0.0017642886,-0.019265566,-0.018316785,0.019755716,0.00032232938,0.0008717156,0.016992038,1.8570621e-05,487.9847,0.1000061,0.010000001,-487.9847,0.12049631,0.11312349,0.08043276,0.04930982,inf,inf,inf,inf,inf,160,1,1,1,1,3,3,2,1,5,1,1,1,0,3,0,0
1771685524956000,1771685524956000,1771685524956000,1771684928340000,47.3977419,8.5455939,0.017854076,-0.031725563,-0.016845703,0.004007112,-0.0025302004,-487.9847,0.011768054,-0.023043927,-0.031149166,-0.037626963,-0.00090424286,0.00046052953,-0.0002578646,0.008654583,-0.021430794,-0.027288215,0.019751007,0.0003224466,0.00086435815,0.016992038,1.8614923e-05,487.9847,0.1000061,0.010000001,-487.9847,0.12090259,0.113315254,0.08073249,0.04938223,inf,inf,inf,inf,inf,160,1,1,1,1,3,3,2,1,5,1,1,1,0,3,0,0
1771685524964000,1771685524964000,1771685524964000,1771684928340000,47.3977419,8.5455939,0.017858213,-0.031739306,-0.016967773,0.004007112,-0.0025302004,-487.9847,0.011717429,-0.022789227,-0.031394195,-0.037767634,-0.00090424286,0.00046052953,-0.0002578646,0.0017698754,0.015784873,-0.036917623,0.019754685,0.00032256384,0.0008654813,0.016992038,1.8659259e-05,487.9847,0.1000061,0.010000001,-487.9847,0.12131162,0.11356666,0.08103205,0.0494649,inf,inf,inf,inf,inf,160,1,1,1,1,3,3,2,1,5,1,1,1,0,3,0,0
1771685524972000,1771685524972000,1771685524972000,1771684928340000,47.3977419,8.5455939,0.017865047,-0.031754866,-0.017120361,0.004007112,-0.0025302004,-487.9847,0.011989185,-0.022635596,-0.031462774,-0.0377327,-0.00090424286,0.00046052953,-0.0002578646,0.041841384,0.0036021862,-0.014733522,0.019724203,0.00032268092,0.00083254604,0.016992038,1.870362e-05,487.9847,0.1000061,0.010000001,-487.9847,0.12172341,0.11381889,0.081332274,0.04954744,inf,inf,inf,inf,inf,160,1,1,1,1,3,3,2,1,5,1,1,1,0,3,0,0
1771685524980000,1771685524980000,1771685524980000,1771684928340000,47.3977419,8.5455939,0.017877972,-0.031775005,-0.017242432,0.004007112,-0.0025302004,-487.9847,0.012570271,-0.022863835,-0.03146946,-0.037636787,-0.00090424286,0.00046052953,-0.0002578646,0.08028467,-0.04368756,-0.0068726945,0.019755423,0.00032279815,0.0008613686,0.016992038,1.874803e-05,487.9847,0.1000061,0.010000001,-487.9847,0.12213797,0.114071965,0.08163207,0.049629852,inf,inf,inf,inf,inf,160,1,1,1,1,3,3,2,1,5,1,1,1,0,3,0,0
1771685524988000,1771685524988000,1771685524988000,1771684928340000,47.3977419,8.5455939,0.017881444,-0.03177009,-0.01739502,0.004007112,-0.0025302004,-487.9847,0.012561405,-0.02290345,-0.031000799,-0.037075985,-0.00090424286,0.00046052953,-0.0002578646,0.007899697,-0.02263673,0.0523203,0.019672548,0.0003220293,0.00077615073,0.016992038,1.8501025e-05,487.9847,0.1000061,0.010000001,-487.9847,0.119887896,0.112747654,0.07997348,0.04918432,inf,inf,inf,inf,inf,160,1,1,1,1,3,3,2,1,5,1,1,1,0,3,0,0
1771685524996000,1771685524996000,1771685524996000,1771684928340000,47.3977419,8.5455939,0.017886644,-0.031771097,-0.01751709,0.004007112,-0.0025302004,-487.9847,0.012427768,-0.02322583,-0.030901572,-0.036885276,-0.00090424286,0.00046052953,-0.0002578646,-0.007940903,-0.057486143,0.006268732,0.019679764,0.00032214628,0.00077731116,0.016992038,1.8545259e-05,487.9847,0.1000061,0.010000001,-487.9847,0.12028999,0.11299709,0.08027293,0.049267292,inf,inf,inf,inf,inf,160,1,1,1,1,3,3,2,1,5,1,1,1,0,3,0,0
1771685525004000,1771685525004000,1771685525004000,1771684928340000,47.3977419,8.5455939,0.017893583,-0.031779088,-0.017669678,0.004007112,-0.0025302004,-487.9847,0.012425032,-0.023521079,-0.030812891,-0.03670577,-0.00090424286,0.00046052953,-0.0002578646,0.008183385,-0.053610448,0.0050747762,0.019716805,0.00032226325,0.00080834655,0.016992038,1.858953e-05,487.9847,0.1000061,0.010000001,-487.9847,0.12069482,0.11324736,0.080572724,0.04935014,inf,inf,inf,inf,inf,160,1,1,1,1,3,3,2,1,5,1,1,1,0,3,0,0
1771685525012000,1771685525012000,1771685525012000,1771684928340000,47.3977419,8.5455939,0.017902456,-0.03179255,-0.017791748,0.004007112,-0.0025302004,-487.9847,0.012243582,-0.023639321,-0.03112654,-0.036925238,-0.00090424286,0.00046052953,-0.0002578646,-0.014472285,-0.031022456,-0.04524644,0.0197431,0.00032219727,0.00082869036,0.016992038,1.863173e-05,487.9847,0.1000061,0.010000001,-487.9847,0.12110202,0.11343934,0.08087086,0.04942244,inf,inf,inf,inf,inf,160,1,1,1,1,3,3,2,1,5,1,1,1,0,3,0,0
1771685525020000,1771685525020000,1771685525020000,1771684928340000,47.3977419,8.5455939,0.017912315,-0.031811953,-0.017913818,0.004007112,-0.0025302004,-487.9847,0.012164593,-0.023917004,-0.030918982,-0.036624324,-0.00090424286,0.00046052953,-0.0002578646,-0.00189636,-0.05049782,0.020026693,0.019741965,0.00032231433,0.0008233986,0.016992038,1.8676075e-05,487.9847,0.1000061,0.010000001,-487.9847,0.12151235,0.11369115,0.081171,0.049505044,inf,inf,inf,inf,inf,160,1,1,1,1,3,3,2,1,5,1,1,1,0,3,0,0
1771685525028000,1771685525028000,1771685525028000,1771684928340000,47.3977419,8.5455939,0.017924981,-0.031837083,-0.018066406,0.004007112,-0.0025302004,-487.9847,0.012399985,-0.02402908,-0.030688446,-0.036301237,-0.00090424286,0.00046052953,-0.0002578646,0.037177097,-0.029350994,0.023017636,0.019721458,0.00032243133,0.0007988266,0.016992038,1.8720451e-05,487.9847,0.1000061,0.010000001,-487.9847,0.12192545,0.1139438,0.08147201,0.049587525,inf,inf,inf,inf,inf,160,1,1,1,1,3,3,2,1,5,1,1,1,0,3,0,0
1771685525036000,1771685525036000,1771685525036000,1771684928340000,47.3977419,8.5455939,0.017938402,-0.031848084,-0.018188477,0.004007112,-0.0025302004,-487.9847,0.012459104,-0.02394789,-0.03054796,-0.036081426,-0.00090424286,0.00046052953,-0.0002578646,0.015837478,-0.007411505,0.011606141,0.019744657,0.00032252562,0.00081805093,0.016992038,1.848652e-05,487.9847,0.1000061,0.010000001,-487.9847,0.11969264,0.1126246,0.079835586,0.04914388,inf,inf,inf,inf,inf,160,1,1,1,1,3,3,2,1,5,1,1,1,0,3,0,0
1771685525044000,1771685525044000,1771685525044000,1771684928340000,47.3977419,8.5455939,0.017953228,-0.031863306,-0.018341064,0.004007112,-0.0025302004,-487.9847,0.012363659,-0.02391266,-0.030470718,-0.035925124,-0.00090424286,0.00046052953,-0.0002578646,-0.0037146916,-0.012670696,0.0038207506,0.019750925,0.00032264274,0.00082023395,0.016992038,1.853074e-05,487.9847,0.1000061,0.010000001,-487.9847,0.12009344,0.11287363,0.08013516,0.049226917,inf,inf,inf,inf,inf,160,1,1,1,1,3,3,2,1,5,1,1,1,0,3,0,0
1771685525052000,1771685525052000,1771685525052000,1771684928340000,47.3977419,8.5455939,0.017970163,-0.031881746,-0.018493652,0.004007112,-0.0025302004,-487.9847,0.012365147,-0.023895895,-0.030576305,-0.035951912,-0.00090424286,0.00046052953,-0.0002578646,0.008151916,-0.014546121,-0.018915625,0.019681497,0.00032189777,0.0007468029,0.016992038,1.8564073e-05,487.9847,0.1000061,0.010000001,-487.9847,0.12049476,0.11312349,0.08042584,0.049309824,inf,inf,inf,inf,inf,160,1,1,1,1,3,3,2,1,5,1,1,1,0,3,0,0
1771685525060000,1771685525060000,1771685525060000,1771684928340000,47.3977419,8.5455939,0.017988658,-0.03190598,-0.018615723,0.004007112,-0.0025302004,-487.9847,0.012317723,-0.024331013,-0.030714393,-0.036007386,-0.00090424286,0.00046052953,-0.0002578646,0.001821313,-0.07056773,-0.023036728,0.019715963,0.0003220146,0.00077767065,0.016992038,1.8608354e-05,487.9847,0.1000061,0.010000001,-487.9847,0.120901,0.113315254,0.08072657,0.049382232,inf,inf,inf,inf,inf,160,1,1,1,1,3,3,2,1,5,1,1,1,0,3,0,0
1771685525068000,1771685525068000,1771685525068000,1771684928340000,47.3977419,8.5455939,0.018009258,-0.031938292,-0.01876831,0.004007112,-0.0025302004,-487.9847,0.012347631,-0.024922831,-0.030752601,-0.035964325,-0.00090424286,0.00046052953,-0.0002578646,0.011276784,-0.08969715,-0.0104364,0.019757891,0.00032213147,0.00081608957,0.016992038,1.8652674e-05,487.9847,0.1000061,0.010000001,-487.9847,0.12131,0.11356666,0.081026345,0.049464896,inf,inf,inf,inf,inf,160,1,1,1,1,3,3,2,1,5,1,1,1,0,3,0,0
1771685525076000,1771685525076000,1771685525076000,1771684928340000,47.3977419,8.5455939,0.018033046,-0.031977735,-0.01889038,0.004007112,-0.0025302004,-487.9847,0.01272138,-0.025062397,-0.030590968,-0.035721786,-0.00090424286,0.00046052953,-0.0002578646,0.054046903,-0.03272162,0.014656688,0.019800773,0.00032224838,0.0008555385,0.016992038,1.8697032e-05,487.9847,0.1000061,0.010000001,-487.9847,0.12172176,0.11381889,0.08132687,0.04954744,inf,inf,inf,inf,inf,160,1,1,1,1,3,3,2,1,5,1,1,1,0,3,0,0
1771685525084000,1771685525084000,1771685525084000,1771684928340000,47.3977419,8.5455939,0.01806221,-0.03202058,-0.019042969,0.004007112,-0.0025302004,-487.9847,0.0131685445,-0.024889823,-0.030746581,-0.035797827,-0.00090424286,0.00046052953,-0.0002578646,0.0630203,0.006723746,-0.024889594,0.019844668,0.00032236532,0.00089607155,0.016992038,1.8741426e-05,487.9847,0.1000061,0.010000001,-487.9847,0.12213629,0.114071965,0.08162812,0.049629852,inf,inf,inf,inf,inf,160,1,1,1,1,3,3,2,1,5,1,1,1,0,3,0,0
1771685525092000,1771685525092000,1771685525092000,1771684928340000,47.3977419,8.5455939,0.018100787,-0.03204829,-0.019195557,0.004007112,-0.0025302004,-487.9847,0.013198066,-0.024721874,-0.030821921,-0.035798345,-0.00090424286,0.00046052953,-0.0002578646,0.011202782,0.004024735,-0.015346798,0.019854408,0.000322459,0.0009025014,0.016992038,1.8505438e-05,487.9847,0.1000061,0.010000001,-487.9847,0.119888544,0.112747654,0.07997852,0.04918432,inf,inf,inf,inf,inf,160,1,1,1,1,3,3,2,1,5,1,1,1,0,3,0,0
1771685525100000,1771685525100000,1771685525100000,1771684928340000,47.3977419,8.5455939,0.018140927,-0.03208052,-0.019348145,0.004007112,-0.0025302004,-487.9847,0.0132658295,-0.025026953,-0.030935882,-0.03583771,-0.00090424286,0.00046052953,-0.0002578646,0.0157671,-0.05462454,-0.020053236,0.019853584,0.00032257603,0.0008982285,0.016992038,1.8549672e-05,487.9847,0.1000061,0.010000001,-487.9847,0.12029066,0.11299709,0.08027828,0.049267292,inf,inf,inf,inf,inf,160,1,1,1,1,3,3,2,1,5,1,1,1,0,3,0,0
1771685525108000,1771685525108000,1771685525108000,1771684928340000,47.3977419,8.5455939,0.018183244,-0.03211872,-0.019470215,0.004007112,-0.0025302004,-487.9847,0.013276667,-0.025123727,-0.030964913,-0.035793316,-0.00090424286,0.00046052953,-0.0002578646,0.008453535,-0.028122196,-0.009319278,0.01981544,0.0003226931,0.0008567027,0.016992038,1.8593943e-05,487.9847,0.1000061,0.010000001,-487.9847,0.12069553,0.11324736,0.080578536,0.049350135,inf,inf,inf,inf,inf,160,1,1,1,1,3,3,2,1,5,1,1,1,0,3,0,0
1771685525116000,1771685525116000,1771685525116000,1771684928340000,47.3977419,8.5455939,0.018226875,-0.032161262,-0.019622803,0.004007112,-0.0025302004,-487.9847,0.013247008,-0.025293363,-0.030749595,-0.035501655,-0.00090424286,0.00046052953,-0.0002578646,0.0031962567,-0.036782596,0.021214595,0.019814504,0.0003228102,0.0008524447,0.016992038,1.8638251e-05,487.9847,0.1000061,0.010000001,-487.9847,0.121103145,0.11343934,0.08087924,0.04942243,inf,inf,inf,inf,inf,160,1,1,1,1,3,3,2,1,5,1,1,1,0,3,0,0
1771685525124000,1771685525124000,1771685525124000,1771684928340000,47.3977419,8.5455939,0.018271327,-0.032210324,-0.01977539,0.004007112,-0.0025302004,-487.9847,0.012806387,-0.025326956,-0.030861234,-0.035538122,-0.00090424286,0.00046052953,-0.0002578646,-0.048562307,-0.018954905,-0.019541008,0.01986034,0.00032206453,0.0008950024,0.016992038,1.867154e-05,487.9847,0.1000061,0.010000001,-487.9847,0.121511154,0.11369115,0.081170626,0.04950504,inf,inf,inf,inf,inf,160,1,1,1,1,3,3,2,1,5,1,1,1,0,3,0,0
1771685525132000,1771685525132000,1771685525132000,1771684928340000,47.3977419,8.5455939,0.018313946,-0.03226412,-0.019927979,0.004007112,-0.0025302004,-487.9847,0.0125827445,-0.025597343,-0.030982925,-0.035585765,-0.00090424286,0.00046052953,-0.0002578646,-0.021621486,-0.048129853,-0.020685138,0.019886993,0.00032218138,0.00091523444,0.016992038,1.8715913e-05,487.9847,0.1000061,0.010000001,-487.9847,0.121924244,0.1139438,0.081471525,0.049587525,inf,inf,inf,inf,inf,160,1,1,1,1,3,3,2,1,5,1,1,1,0,3,0,0
1771685525140000,1771685525140000,1771685525140000,1771684928340000,47.3977419,8.5455939,0.018363122,-0.032305274,-0.020050049,0.004007112,-0.0025302004,-487.9847,0.013048392,-0.02561439,-0.030987358,-0.03550873,-0.00090424286,0.00046052953,-0.0002578646,0.06512469,-0.018622765,-0.0069085504,0.019963723,0.00032227475,0.0009855921,0.016992038,1.8482104e-05,487.9847,0.1000061,0.010000001,-487.9847,0.11969154,0.1126246,0.079833455,0.04914388,inf,inf,inf,inf,inf,160,1,1,1,1,3,3,2,1,5,1,1,1,0,3,0,0
1771685525148000,1771685525148000,1771685525148000,1771684928340000,47.3977419,8.5455939,0.018415479,-0.032350935,-0.020202637,0.004007112,-0.0025302004,-487.9847,0.013015205,-0.025866212,-0.031088633,-0.035529114,-0.00090424286,0.00046052953,-0.0002578646,0.0025786557,-0.047501996,-0.018879304,0.01994905,0.0003223917,0.00096438406,0.016992038,1.8526316e-05,487.9847,0.1000061,0.010000001,-487.9847,0.12009233,0.11287363,0.08013253,0.049226917,inf,inf,inf,inf,inf,160,1,1,1,1,3,3,2,1,5,1,1,1,0,3,0,0
1771685525156000,1771685525156000,1771685525156000,1771684928340000,47.3977419,8.5455939,0.018468788,-0.032402024,-0.020324707,0.004007112,-0.0025302004,-487.9847,0.013056533,-0.025984596,-0.031076137,-0.03543632,-0.00090424286,0.00046052953,-0.0002578646,0.011709571,-0.03036837,-0.004526693,0.019954387,0.0003225086,0.00096334843,0.016992038,1.8570565e-05,487.9847,0.1000061,0.010000001,-487.9847,0.12049586,0.11312349,0.080431975,0.049309824,inf,inf,inf,inf,inf,160,1,1,1,1,3,3,2,1,5,1,1,1,0,3,0,0
1771685525164000,1771685525164000,1771685525164000,1771684928340000,47.3977419,8.5455939,0.018523287,-0.03245816,-0.020477295,0.004007112,-0.0025302004,-487.9847,0.012944431,-0.026238889,-0.030636767,-0.034912165,-0.00090424286,0.00046052953,-0.0002578646,-0.00765047,-0.046912283,0.048754733,0.019921273,0.00032262565,0.0009239982,0.016992038,1.8614857e-05,487.9847,0.1000061,0.010000001,-487.9847,0.12090214,0.113315254,0.08073265,0.04938223,inf,inf,inf,inf,inf,160,1,1,1,1,3,3,2,1,5,1,1,1,0,3,0,0
1771685525172000,1771685525172000,1771685525172000,1771684928340000,47.3977419,8.5455939,0.018577177,-0.032520037,-0.020599365,0.004007112,-0.0025302004,-487.9847,0.012695913,-0.026512764,-0.030265566,-0.03445788,-0.00090424286,0.00046052953,-0.0002578646,-0.024881553,-0.048931018,0.040363517,0.019932745,0.00032274277,0.0009293831,0.016992038,1.865919e-05,487.9847,0.1000061,0.010000001,-487.9847,0.12131117,0.11356666,0.08103231,0.0494649,inf,inf,inf,inf,inf,160,1,1,1,1,3,3,2,1,5,1,1,1,0,3,0,0
1771685525180000,1771685525180000,1771685525180000,1771684928340000,47.3977419,8.5455939,0.018631235,-0.032587286,-0.020721436,0.004007112,-0.0025302004,-487.9847,0.012611985,-0.026626829,-0.030019965,-0.034129933,-0.00090424286,0.00046052953,-0.0002578646,-0.0044891676,-0.028536271,0.024789942,0.01992394,0.00032285988,0.0009145881,0.016992038,1.8703555e-05,487.9847,0.1000061,0.010000001,-487.9847,0.12172297,0.11381889,0.08133235,0.04954744,inf,inf,inf,inf,inf,160,1,1,1,1,3,3,2,1,5,1,1,1,0,3,0,0
1771685525188000,1771685525188000,1771685525188000,1771684928340000,47.3977419,8.5455939,0.01868485,-0.0326568,-0.020843506,0.004007112,-0.0025302004,-487.9847,0.012387542,-0.026440829,-0.029818885,-0.033847272,-0.00090424286,0.00046052953,-0.0002578646,-0.022158913,0.00925564,0.019347759,0.019972617,0.00032211433,0.0009573656,0.016992038,1.8736822e-05,487.9847,0.1000061,0.010000001,-487.9847,0.122135065,0.114071965,0.08162336,0.049629852,inf,inf,inf,inf,inf,160,1,1,1,1,3,3,2,1,5,1,1,1,0,3,0,0
1771685525196000,1771685525196000,1771685525196000,1771684928340000,47.3977419,8.5455939,0.018740661,-0.032708168,-0.020965576,0.004007112,-0.0025302004,-487.9847,0.012183765,-0.026097273,-0.029762844,-0.033696838,-0.00090424286,0.00046052953,-0.0002578646,-0.018937973,0.02657057,0.00017276032,0.020042524,0.00032220743,0.0010224446,0.016992038,1.8500985e-05,487.9847,0.1000061,0.010000001,-487.9847,0.119887464,0.112747654,0.07997448,0.04918432,inf,inf,inf,inf,inf,160,1,1,1,1,3,3,2,1,5,1,1,1,0,3,0,0
1771685525204000,1771685525204000,1771685525204000,1771684928340000,47.3977419,8.5455939,0.018797936,-0.032762654,-0.021087646,0.004007112,-0.0025302004,-487.9847,0.012460103,-0.026383799,-0.02965895,-0.03349986,-0.00090424286,0.00046052953,-0.0002578646,0.040894713,-0.051723834,0.006304122,0.020069994,0.0003223243,0.0010449602,0.016992038,1.8545217e-05,487.9847,0.1000061,0.010000001,-487.9847,0.120289564,0.11299709,0.08027424,0.049267292,inf,inf,inf,inf,inf,160,1,1,1,1,3,3,2,1,5,1,1,1,0,3,0,0
1771685525212000,1771685525212000,1771685525212000,1771684928340000,47.3977419,8.5455939,0.018856276,-0.032822877,-0.0211792,0.004007112,-0.0025302004,-487.9847,0.012299602,-0.026709085,-0.02958051,-0.03332958,-0.00090424286,0.00046052953,-0.0002578646,-0.013806893,-0.056263298,0.003268942,0.020067357,0.00032225883,0.0010374612,0.016992038,1.8587394e-05,487.9847,0.1000061,0.010000001,-487.9847,0.12069401,0.11324736,0.08057264,0.04935014,inf,inf,inf,inf,inf,160,1,1,1,1,3,3,2,1,5,1,1,1,0,3,0,0
1771685525220000,1771685525220000,1771685525220000,1771684928340000,47.3977419,8.5455939,0.018914996,-0.032887667,-0.02130127,0.004007112,-0.0025302004,-487.9847,0.01230209,-0.02653265,-0.029723058,-0.03337847,-0.00090424286,0.00046052953,-0.0002578646,0.006391827,0.006894576,-0.024325212,0.020103818,0.00032237565,0.0010684333,0.016992038,1.863169e-05,487.9847,0.1000061,0.010000001,-487.9847,0.121101595,0.11343934,0.08087281,0.04942244,inf,inf,inf,inf,inf,160,1,1,1,1,3,3,2,1,5,1,1,1,0,3,0,0
1771685525228000,1771685525228000,1771685525228000,1771684928340000,47.3977419,8.5455939,0.018975053,-0.032954257,-0.02142334,0.004007112,-0.0025302004,-487.9847,0.012520711,-0.026454771,-0.0297036,-0.033266652,-0.00090424286,0.00046052953,-0.0002578646,0.03323606,-0.004991619,-0.0039334404,0.020139134,0.00032249253,0.0010983455,0.016992038,1.8676023e-05,487.9847,0.1000061,0.010000001,-487.9847,0.121511936,0.11369115,0.081172906,0.049505048,inf,inf,inf,inf,inf,160,1,1,1,1,3,3,2,1,5,1,1,1,0,3,0,0
